pid,trial_type,rt,time_elapsed,cost,display_ev,problem_id,payoff_matrix,net_payoff,min_trial_secs,click_times,click_cost,payoff_value,probabilities,e_vs,payoff_index,choice_index,revealed_points,clicks,answers,correct,flag,block,trial_index,sigma,alpha
1,mouselab,42627.0,67992,0,False,KmJVF2O061O9wka,"[[-11, -24, -129, 73, -12, 131], [-9, 84, 99, 60, 60, 58], [-101, -34, -196, 51, 61, 20], [122, 78, 29, 57, -22, -2]]",-101,0.0,[],0,-101,"[0.25, 0.34, 0.19, 0.22]","[0, 0, 0, 0, 0, 0]",2,0,"[[0, 0, 0, 0, 0, 0], [0, 0, 0, 0, 0, 0], [0, 0, 0, 0, 0, 0], [0, 0, 0, 0, 0, 0]]",[],,,,instruct1,0,75,10.000000000000009
1,mouselab,9045.0,84784,0,False,ufwDOEQYZMaakNM,"[[-90, 3, 21, -139, 50, -11], [63, -14, -89, -15, -30, -69], [1, 29, 122, -49, 60, -58], [-51, -39, 57, 19, 127, -26]]",1,0.0,[],0,1,"[0.23, 0.35, 0.22, 0.2]","[0, 0, 0, 0, 0, 0]",2,0,"[[0, 0, 0, 0, 0, 0], [0, 0, 0, 0, 0, 0], [0, 0, 0, 0, 0, 0], [0, 0, 0, 0, 0, 0]]",[],,,,instruct1,1,75,10.000000000000009
1,mouselab,24936.0,117656,0,False,KQUm1G6X7S7s5dg,"[[-18, -4, -2, 31, -6, 43], [-8, 95, 91, 13, 47, 41], [-16, 1, 43, 105, -54, -15], [-4, 82, -111, -67, -25, -126]]",-15,0.0,[],0,-15,"[0.21, 0.18, 0.04, 0.57]","[0, 0, 0, 0, 0, 0]",2,5,"[[0, 0, 0, 0, 0, 0], [0, 0, 0, 0, 0, 0], [0, 0, 0, 0, 0, 0], [0, 0, 0, 0, 0, 0]]",[],,,,instruct1,2,75,10.000000000000009
1,mouselab,21139.0,302367,0,False,8KRi3gpD56McsmX,"[[-117, 53, 137, 116, 78, 71], [61, -44, 35, 40, -22, 71], [-55, -92, -190, -94, 112, 0], [137, -17, 52, 154, -6, -60]]",35,0.0,[],0,35,"[0.32, 0.27, 0.24, 0.17]","[0, 0, 0, 0, 0, 0]",1,2,"[[0, 0, 0, 0, 0, 0], [0, 0, 0, 0, 0, 0], [0, 0, 0, 0, 0, 0], [0, 0, 0, 0, 0, 0]]",[],,,,instruct2,0,75,10.000000000000009
1,mouselab,5008.0,310352,0,False,m4oMFTnOfNTQA3a,"[[40, 180, 166, -33, -12, 80], [12, 104, -3, 64, 26, 93], [-101, 196, -26, 187, 84, 2], [-57, 98, -29, 89, -57, -25]]",104,0.0,[],0,104,"[0.21, 0.25, 0.26, 0.28]","[0, 0, 0, 0, 0, 0]",1,1,"[[0, 0, 0, 0, 0, 0], [0, 0, 0, 0, 0, 0], [0, 0, 0, 0, 0, 0], [0, 0, 0, 0, 0, 0]]",[],,,dominating,instruct2,1,75,10.000000000000009
1,mouselab,5067.0,318379,0,False,xTfqufUPmFL5ZUQ,"[[15, 33, -53, 10, 19, 3], [44, -35, -72, 78, -110, 66], [-72, -24, -11, -19, 97, -144], [20, 4, 17, 8, -51, 0]]",-72,0.0,[],0,-72,"[0.22, 0.21, 0.37, 0.2]","[0, 0, 0, 0, 0, 0]",2,0,"[[0, 0, 0, 0, 0, 0], [0, 0, 0, 0, 0, 0], [0, 0, 0, 0, 0, 0], [0, 0, 0, 0, 0, 0]]",[],,,,instruct2,2,75,10.000000000000009
1,mouselab,39720.0,360977,0,False,Im0WMVeT8ZSYAOx,"[[-90, -38, -113, -57, -21, -34], [77, 56, 77, 74, -106, -28], [-111, -163, 91, -87, -84, 4], [53, 159, -120, 8, -18, 32]]",53,0.0,"[8465, 9215, 9855, 10445, 11883, 12593, 13232, 13802, 15981, 16760, 20848, 21458, 22548, 23018, 23497, 23986, 24437, 24937, 25416, 25917, 26386, 26886, 27466, 28076]",0,53,"[0.19, 0.31, 0.33, 0.17]","[-21, -17, 12, -15, -68, -8]",3,0,"[[-90, -38, -113, -57, -21, -34], [77, 56, 77, 74, -106, -28], [-111, -163, 91, -87, -84, 4], [53, 159, -120, 8, -18, 32]]","[0, 6, 12, 18, 1, 7, 13, 19, 2, 8, 14, 20, 3, 9, 15, 21, 22, 16, 10, 4, 5, 11, 17, 23]",,,,instruct3,0,75,10.000000000000009
1,mouselab,24036.0,387257,0,False,p9FZjcojg3TSIaF,"[[-50, -41, 22, -90, 78, 110], [-18, -50, -10, -56, 18, 14], [-115, 3, -55, -51, -45, 1], [-85, -65, -1, -55, -43, 4]]",14,0.0,"[7735, 8834, 9436, 9894, 10363, 11355, 11833, 12342, 12872, 13762, 14291, 14791, 15451, 15961, 17010, 17529, 18109, 18629, 19128, 19648, 20169, 20728, 21228, 21758]",0,14,"[0.4, 0.17, 0.18, 0.25]","[-65, -41, -3, -68, 15, 48]",1,5,"[[-50, -41, 22, -90, 78, 110], [-18, -50, -10, -56, 18, 14], [-115, 3, -55, -51, -45, 1], [-85, -65, -1, -55, -43, 4]]","[0, 1, 2, 3, 4, 5, 11, 10, 9, 8, 7, 6, 12, 13, 14, 15, 16, 17, 23, 22, 21, 20, 19, 18]",,,,instruct3,1,75,10.000000000000009
1,mouselab,18666.0,408742,0,False,j7XhWAoHVlAXXAz,"[[-64, -9, 37, 18, 0, 1], [18, 7, -53, -108, 104, 123], [-24, -2, -41, 8, -9, -9], [-84, -15, 9, 38, 106, -71]]",18,0.0,"[2585, 3064, 3594, 4094, 4554, 5013, 5556, 6013, 6513, 7062, 7612, 8172, 9061, 9512, 9921, 10410, 10900, 11380, 11880, 12360, 12860, 13349, 13832, 14409]",0,18,"[0.24000000000000002, 0.15, 0.3, 0.31]","[-46, -6, -9, 2, 46, -6]",0,3,"[[-64, -9, 37, 18, 0, 1], [18, 7, -53, -108, 104, 123], [-24, -2, -41, 8, -9, -9], [-84, -15, 9, 38, 106, -71]]","[0, 1, 2, 3, 4, 5, 11, 10, 9, 8, 7, 6, 12, 13, 14, 15, 16, 17, 23, 22, 21, 20, 19, 18]",,,,instruct3,2,75,10.000000000000009
1,mouselab,15842.0,516563,0,False,tGbaq2ekRfeVMGL,"[[148, 46, -133, 61, -81, 38], [-69, 137, 87, 13, 72, 54], [79, 132, -32, 91, -16, -103], [49, 65, -15, -153, 72, 7]]",137,0.0,"[1439, 2079, 2998, 3928, 4437, 5106, 6356, 6826, 7256, 7725, 8495, 9005, 9484, 9964, 10464, 11004, 11443, 11933, 12403, 12863, 13362, 13842, 14372, 14931]",0,137,"[0.31, 0.25, 0.29, 0.15]","[59, 97, -31, 26, -1, -4]",1,1,"[[148, 46, -133, 61, -81, 38], [-69, 137, 87, 13, 72, 54], [79, 132, -32, 91, -16, -103], [49, 65, -15, -153, 72, 7]]","[6, 0, 12, 19, 13, 18, 7, 1, 2, 8, 14, 20, 21, 15, 9, 3, 4, 10, 16, 22, 23, 17, 11, 5]",,,,test,0,75,10.000000000000009
1,mouselab,16292.0,534554,0,False,dupkonpAcbSAlfm,"[[-64, 3, 99, 45, -102, -56], [66, -34, -13, 22, 240, 88], [3, -4, -16, 78, -16, 101], [-8, -2, -8, -32, 22, 17]]",88,0.0,"[1559, 2409, 3060, 3578, 4038, 4558, 5067, 5519, 5997, 6526, 7037, 7807, 8516, 8985, 9516, 10145, 10675, 11344, 11954, 12479, 13383, 13963, 14522, 15062]",0,88,"[0.2, 0.35, 0.2, 0.25]","[9, -13, 10, 24, 66, 44]",1,5,"[[-64, 3, 99, 45, -102, -56], [66, -34, -13, 22, 240, 88], [3, -4, -16, 78, -16, 101], [-8, -2, -8, -32, 22, 17]]","[6, 0, 12, 18, 19, 13, 7, 1, 2, 8, 14, 20, 21, 15, 9, 3, 4, 10, 16, 22, 23, 17, 11, 5]",,,,test,1,75,10.000000000000009
1,mouselab,13933.0,549776,0,False,CMGjVRi1gG4Q0Fu,"[[-1, -107, -67, 19, -26, 59], [23, 70, 18, 175, -84, 34], [88, -27, 58, 82, 108, 29], [16, 44, 74, 27, -4, -20]]",19,0.0,"[1349, 1868, 2399, 2869, 3378, 3828, 4357, 4847, 5237, 5756, 6346, 6916, 7395, 7866, 8366, 8834, 9335, 9854, 10404, 11263, 11663, 12153, 12633, 13092]",0,19,"[0.26, 0.22, 0.28, 0.24]","[33, -9, 21, 73, 4, 26]",0,3,"[[-1, -107, -67, 19, -26, 59], [23, 70, 18, 175, -84, 34], [88, -27, 58, 82, 108, 29], [16, 44, 74, 27, -4, -20]]","[0, 6, 12, 18, 19, 13, 7, 1, 2, 8, 14, 20, 21, 15, 9, 3, 4, 10, 16, 22, 23, 17, 11, 5]",,,,test,2,75,10.000000000000009
1,mouselab,18289.0,569525,0,False,PViw9u8Xi6g1B8d,"[[-50, 232, -5, 46, 84, 76], [-5, 3, -66, 83, 99, -148], [-40, 5, -57, 72, 6, -9], [16, 17, 49, -23, 14, 74]]",232,0.0,"[1957, 2647, 5606, 6186, 6625, 7075, 7524, 7994, 8424, 8944, 9444, 11444, 11992, 12472, 12952, 13402, 13842, 14371, 14921, 15441, 15891, 16410, 16919, 17479]",0,232,"[0.24, 0.26, 0.25, 0.25]","[-19, 62, -20, 45, 51, -4]",0,1,"[[-50, 232, -5, 46, 84, 76], [-5, 3, -66, 83, 99, -148], [-40, 5, -57, 72, 6, -9], [16, 17, 49, -23, 14, 74]]","[0, 6, 12, 18, 19, 13, 7, 1, 2, 8, 14, 20, 21, 15, 9, 3, 4, 10, 16, 22, 23, 17, 11, 5]",,,,test,3,75,10.000000000000009
1,mouselab,18270.0,590364,0,False,ty42NK9rBNfmPdU,"[[28, 55, 75, -39, -21, 29], [-77, -60, 27, -41, -17, 13], [-24, 149, -71, 71, -91, -225], [53, 102, -54, -51, -107, 93]]",-60,0.0,"[1838, 2328, 2978, 3957, 4557, 5047, 5556, 6136, 6696, 7175, 8075, 8617, 9084, 9584, 10095, 10783, 11373, 11873, 12373, 12863, 13353, 13872, 14472, 15022]",0,-60,"[0.26, 0.18, 0.21, 0.35]","[7, 70, -9, -20, -65, -5]",1,1,"[[28, 55, 75, -39, -21, 29], [-77, -60, 27, -41, -17, 13], [-24, 149, -71, 71, -91, -225], [53, 102, -54, -51, -107, 93]]","[6, 0, 18, 12, 1, 7, 13, 19, 20, 14, 8, 2, 3, 9, 15, 21, 22, 16, 10, 4, 5, 11, 17, 23]",,,,test,4,75,10.000000000000009
1,mouselab,28075.0,620703,0,False,uH8gcgWUEoa2hfm,"[[-110, -111, 7, 18, 20, -36], [-15, -77, -21, 87, -24, 20], [-24, -17, -91, 83, -97, -109], [-48, 37, -25, -70, -102, -3]]",18,0.0,"[999, 1558, 2048, 2498, 2978, 3458, 3927, 4438, 4966, 5476, 5956, 6556, 7036, 7515, 7995, 9415, 9934, 10464, 11013, 11643, 12282, 13363, 14102, 14582]",0,18,"[0.21, 0.28, 0.24, 0.27]","[-46, -39, -33, 29, -53, -29]",0,3,"[[-110, -111, 7, 18, 20, -36], [-15, -77, -21, 87, -24, 20], [-24, -17, -91, 83, -97, -109], [-48, 37, -25, -70, -102, -3]]","[0, 6, 12, 18, 19, 13, 7, 1, 2, 8, 14, 20, 21, 15, 9, 3, 4, 10, 16, 22, 23, 17, 11, 5]",,,,test,5,75,10.000000000000009
1,mouselab,26272.0,649244,0,False,iY5ihY525D06K48,"[[-45, -34, -5, 9, -41, -82], [-4, -65, -31, -8, -27, -9], [-20, 43, 47, 75, 21, 5], [-25, 15, -55, -45, -20, -11]]",75,0.0,"[1696, 2130, 2629, 3063, 3513, 3973, 4464, 5023, 5792, 6402, 6992, 7541, 8051, 8530, 9090, 9690, 10159, 10679, 11209, 11719, 12168, 12688, 13238, 13718]",0,75,"[0.15000000000000002, 0.3, 0.28, 0.27]","[-20, -9, -12, 8, -14, -17]",2,3,"[[-45, -34, -5, 9, -41, -82], [-4, -65, -31, -8, -27, -9], [-20, 43, 47, 75, 21, 5], [-25, 15, -55, -45, -20, -11]]","[0, 6, 12, 18, 19, 13, 7, 1, 2, 8, 14, 20, 21, 15, 9, 3, 4, 10, 16, 22, 23, 17, 11, 5]",,,,test,6,75,10.000000000000009
1,mouselab,9385.0,662537,0,False,pvGuxwjvCLZF4WG,"[[-48, -101, -55, -147, 94, -162], [52, 86, 94, -80, -31, -4], [-97, 25, -99, 44, 36, 19], [-69, -86, 34, -77, -49, 74]]",94,0.0,"[1429, 1919, 2448, 2918, 3418, 3879, 4338, 4867, 5317, 5827, 6367, 6846, 7336, 7937, 8415, 8895]",0,94,"[0.23, 0.4, 0.16, 0.21]","[-20, -3, 16, -75, 0, 0]",0,4,"[[-48, -101, -55, -147, 0, 0], [52, 86, 94, -80, 0, 0], [-97, 25, -99, 44, 0, 0], [-69, -86, 34, -77, 0, 0]]","[0, 6, 12, 18, 19, 13, 7, 1, 2, 8, 14, 20, 21, 15, 9, 3]",,,,test,7,75,10.000000000000009
1,mouselab,18669.0,682926,0,False,1Ay26TgLsQaGf51,"[[-114, -32, -21, 9, 82, -25], [-43, 27, -193, 13, 65, 10], [-95, 7, 39, 35, 50, -53], [32, -17, 64, -49, 55, -74]]",82,0.0,"[1218, 1667, 2157, 2669, 3217, 3697, 4158, 4676, 5206, 5746, 6325, 6935, 7424, 7875, 8405, 8885, 9733, 10233, 10983, 11602, 12162, 12712, 13282, 13851]",0,82,"[0.24, 0.27, 0.23, 0.26]","[-52, -3, -32, 1, 63, -35]",0,4,"[[-114, -32, -21, 9, 82, -25], [-43, 27, -193, 13, 65, 10], [-95, 7, 39, 35, 50, -53], [32, -17, 64, -49, 55, -74]]","[0, 1, 2, 3, 4, 5, 11, 10, 9, 8, 7, 6, 12, 13, 14, 15, 16, 17, 23, 22, 21, 20, 19, 18]",,,,test,8,75,10.000000000000009
1,mouselab,17752.0,702216,0,False,JaKarNU4ENjuDlm,"[[129, 45, -40, -61, -72, 14], [-87, -72, 105, -178, -33, 70], [166, 38, 12, 26, 85, -39], [21, -47, -32, 16, 47, -31]]",-32,0.0,"[1569, 2369, 3039, 3558, 4018, 4528, 5127, 5667, 6117, 6648, 7176, 7716, 8166, 8646, 9156, 9675, 10105, 10619, 11164, 11674, 12184, 12943, 13513, 14092]",0,-32,"[0.1, 0.38, 0.31, 0.21]","[36, -21, 33, -62, 16, 9]",3,2,"[[129, 45, -40, -61, -72, 14], [-87, -72, 105, -178, -33, 70], [166, 38, 12, 26, 85, -39], [21, -47, -32, 16, 47, -31]]","[6, 0, 12, 18, 19, 13, 7, 1, 2, 8, 14, 20, 21, 15, 9, 3, 4, 10, 16, 22, 23, 17, 11, 5]",,,,test,9,75,10.000000000000009
1,mouselab,24447.0,728762,0,False,jTpkWKNHY4CNxkr,"[[108, -192, -29, 102, -95, -8], [-59, -24, -6, -136, 102, -28], [111, -16, -121, 17, 129, 79], [59, -38, -18, 12, -67, -116]]",-59,0.0,"[1919, 2448, 2948, 3468, 3988, 4467, 5037, 6096, 6576, 7126, 7716, 8265, 8746, 9285, 9844, 10414, 10904, 11384, 11854, 12314, 12833, 13373, 13953, 14513]",0,-59,"[0.17, 0.26, 0.25, 0.32]","[50, -55, -42, -10, 21, -26]",1,0,"[[108, -192, -29, 102, -95, -8], [-59, -24, -6, -136, 102, -28], [111, -16, -121, 17, 129, 79], [59, -38, -18, 12, -67, -116]]","[0, 6, 12, 18, 19, 13, 7, 1, 2, 3, 4, 5, 11, 10, 9, 8, 14, 15, 16, 17, 23, 22, 21, 20]",,,,test,10,75,10.000000000000009
1,mouselab,15623.0,745863,0,False,qqiVbqryVLFhcXQ,"[[-111, -43, -108, 97, -18, 42], [-17, -33, 138, 29, -17, -31], [-43, 57, 79, 0, 66, 8], [-52, -17, 65, -80, -117, -80]]",138,0.0,"[1650, 2098, 2599, 3038, 3548, 4028, 4558, 5167, 5687, 6306, 6876, 7346, 7826, 8316, 9336, 9955, 10484, 10935, 11464, 12143, 12643, 13153, 13673, 14323]",0,138,"[0.18, 0.39, 0.2, 0.23]","[-47, -13, 65, 10, -24, -21]",1,2,"[[-111, -43, -108, 97, -18, 42], [-17, -33, 138, 29, -17, -31], [-43, 57, 79, 0, 66, 8], [-52, -17, 65, -80, -117, -80]]","[0, 6, 12, 18, 19, 13, 7, 1, 2, 8, 14, 20, 21, 9, 15, 3, 4, 10, 16, 22, 23, 17, 11, 5]",,,,test,11,75,10.000000000000009
1,mouselab,16511.0,764074,0,False,DtUUF6WiCh2bNtn,"[[152, 44, -8, 138, -24, -21], [118, 48, -108, -70, 40, -89], [-56, 44, -28, -23, 80, 63], [126, 221, -56, -106, -88, -27]]",48,0.0,"[2029, 3069, 3611, 4128, 4667, 5298, 5937, 6417, 6938, 7516, 8096, 8656, 9185, 9635, 10165, 10644, 11104, 11596, 12453, 12934, 13463, 13962, 14472, 15032]",0,48,"[0.2500000000000002, 0.21, 0.18, 0.36]","[98, 109, -50, -22, -15, -22]",1,1,"[[152, 44, -8, 138, -24, -21], [118, 48, -108, -70, 40, -89], [-56, 44, -28, -23, 80, 63], [126, 221, -56, -106, -88, -27]]","[0, 1, 2, 3, 4, 5, 11, 10, 9, 8, 7, 6, 12, 13, 14, 15, 16, 17, 23, 22, 21, 20, 19, 18]",,,,test,12,75,10.000000000000009
1,mouselab,24547.0,790590,0,False,uAWLa7AB2EigNyt,"[[68, -52, -12, 89, 65, 85], [57, 15, 79, 6, -91, -28], [4, 38, -29, -14, 62, -85], [54, 7, -10, -68, 44, -71]]",57,0.0,"[5836, 6316, 6786, 7547, 8075, 8585, 9134, 9671, 10155, 10644, 11134, 11643, 12163, 12603, 13113, 13632, 14102, 14582, 15081, 15541, 16041, 16521, 16971, 17400]",0,57,"[0.3, 0.12, 0.23, 0.35]","[47, -3, -4, 0, 38, -22]",1,0,"[[68, -52, -12, 89, 65, 85], [57, 15, 79, 6, -91, -28], [4, 38, -29, -14, 62, -85], [54, 7, -10, -68, 44, -71]]","[0, 6, 12, 18, 19, 13, 7, 1, 2, 8, 14, 20, 21, 15, 9, 3, 4, 10, 16, 22, 23, 17, 11, 5]",,,,test,13,75,10.000000000000009
1,mouselab,21889.0,814337,0,False,D1RZHPelpPlTsLw,"[[-16, 60, -22, -89, 20, -14], [-39, 55, 57, -40, -143, 210], [11, -90, 93, -103, -11, 43], [7, -83, -136, -50, -101, 57]]",210,0.0,"[1208, 1688, 2768, 3457, 4499, 5056, 5516, 6016, 6586, 7155, 7675, 8202, 8725, 9254, 9684, 10184, 10664, 11163, 11673, 12153, 12654, 13134, 14213, 14782]",0,210,"[0.35, 0.2, 0.27, 0.18]","[-9, -7, 4, -76, -43, 59]",1,5,"[[-16, 60, -22, -89, 20, -14], [-39, 55, 57, -40, -143, 210], [11, -90, 93, -103, -11, 43], [7, -83, -136, -50, -101, 57]]","[0, 1, 2, 3, 4, 5, 11, 10, 9, 8, 7, 6, 12, 13, 14, 15, 16, 17, 23, 22, 21, 20, 19, 18]",,,,test,14,75,10.000000000000009
1,mouselab,17991.0,833699,0,False,AcrdfSeVXGbzay3,"[[-75, 22, 17, 13, 124, 130], [90, -14, 94, -21, -68, -43], [104, -120, 81, -81, -25, 10], [2, -100, -48, 1, 34, -24]]",90,0.0,"[2948, 3818, 4348, 4857, 6196, 6756, 7286, 7906, 8456, 8986, 9465, 9974, 10504, 11034, 11514, 11983, 12433, 12914, 13473, 13982, 14482, 14973, 15472, 15952]",0,90,"[0.32, 0.18, 0.28, 0.22]","[22, -51, 34, -22, 28, 31]",1,0,"[[-75, 22, 17, 13, 124, 130], [90, -14, 94, -21, -68, -43], [104, -120, 81, -81, -25, 10], [2, -100, -48, 1, 34, -24]]","[0, 1, 2, 3, 4, 5, 11, 10, 9, 8, 7, 6, 12, 13, 14, 15, 16, 17, 23, 22, 21, 20, 19, 18]",,,,test,15,75,10.000000000000009
1,mouselab,27505.0,862782,0,False,BSzRGLphNoFr9S8,"[[77, 80, -47, -40, 39, 86], [-17, 72, -33, -112, 74, -80], [-51, -16, -19, -22, -59, -140], [29, 74, 40, 25, -95, 115]]",-16,0.0,"[1087, 1807, 2401, 2976, 3558, 4096, 4596, 5135, 5665, 6165, 6626, 7114, 7674, 8153, 8654, 9203, 9783, 10282, 10822, 11343, 11882, 12352, 12892, 13451]",0,-16,"[0.35, 0.17, 0.2, 0.28]","[22, 58, -15, -30, -12, 21]",2,1,"[[77, 80, -47, -40, 39, 86], [-17, 72, -33, -112, 74, -80], [-51, -16, -19, -22, -59, -140], [29, 74, 40, 25, -95, 115]]","[0, 1, 2, 3, 4, 5, 11, 10, 9, 8, 7, 6, 12, 13, 14, 15, 16, 17, 23, 22, 21, 20, 19, 18]",,,,test,16,75,10.000000000000009
1,mouselab,15683.0,884353,0,False,M37qiSEgNyuXj4W,"[[-62, 47, -50, -69, 124, -159], [126, 104, 73, -73, 64, -184], [-66, 77, -137, -42, 74, 25], [16, 15, -2, 107, 16, -129]]",77,0.0,"[1200, 2769, 3268, 4118, 4648, 5117, 5607, 6137, 6717, 7267, 7837, 8416, 8906, 9376, 9886, 10335, 10805, 11285, 11804, 12344, 12854, 13323, 13833, 14273]",0,77,"[0.22, 0.22, 0.25, 0.31]","[3, 57, -30, -9, 65, -109]",2,1,"[[-62, 47, -50, -69, 124, -159], [126, 104, 73, -73, 64, -184], [-66, 77, -137, -42, 74, 25], [16, 15, -2, 107, 16, -129]]","[0, 1, 2, 3, 4, 5, 11, 10, 9, 8, 7, 6, 12, 13, 14, 15, 16, 17, 23, 22, 21, 20, 19, 18]",,,,test,17,75,10.000000000000009
1,mouselab,13463.0,899355,0,False,Upnn6z3TT95X9QN,"[[57, 29, 70, -76, -9, -88], [21, 70, 124, -150, 67, -38], [14, -47, 55, -157, 53, -20], [100, -35, 166, 34, 43, 6]]",55,0.0,"[1159, 1639, 2132, 2598, 3147, 3647, 4207, 4707, 5176, 5626, 6116, 6576, 7085, 7575, 8005, 8454, 8884, 9334, 9871, 10433, 11073, 11593, 12132, 12632]",0,55,"[0.23, 0.22, 0.33, 0.22]","[44, -1, 98, -95, 40, -34]",2,2,"[[57, 29, 70, -76, -9, -88], [21, 70, 124, -150, 67, -38], [14, -47, 55, -157, 53, -20], [100, -35, 166, 34, 43, 6]]","[0, 1, 2, 3, 4, 5, 11, 10, 9, 8, 7, 6, 12, 13, 14, 15, 16, 17, 23, 22, 21, 20, 19, 18]",,,,test,18,75,10.000000000000009
1,mouselab,13941.0,914757,0,False,TRbTjUzM32WiCfB,"[[37, 22, 94, 58, -40, -14], [-69, -23, -64, 48, 5, 18], [58, -38, -23, 113, 118, -20], [-72, 75, -91, 87, 18, 21]]",58,0.0,"[1138, 1638, 2127, 2647, 3137, 3586, 4056, 4587, 5096, 5605, 6085, 6655, 7204, 7675, 8144, 8714, 9243, 9794, 10573, 11162, 11662, 12192, 12642, 13101]",0,58,"[0.36, 0.27, 0.23, 0.14]","[-2, 3, -1, 72, 17, -2]",0,3,"[[37, 22, 94, 58, -40, -14], [-69, -23, -64, 48, 5, 18], [58, -38, -23, 113, 118, -20], [-72, 75, -91, 87, 18, 21]]","[0, 1, 2, 3, 4, 5, 11, 10, 9, 8, 7, 6, 12, 13, 14, 15, 16, 17, 23, 22, 21, 20, 19, 18]",,,,test,19,75,10.000000000000009
10,mouselab,25530.0,40017,8,True,dBNl5dzyNSRu5ql,"[[31, -118, 22, -56, -123, 88], [-31, 37, 39, 10, 24, 22], [-158, 22, -6, 27, -86, -51], [-47, -24, -25, -115, -32, 5]]",22,20.0,[],0,22,"[0.22, 0.04, 0.73, 0.01]","[0, 0, 0, 0, 0, 0]",2,1,"[[0, 0, 0, 0, 0, 0], [0, 0, 0, 0, 0, 0], [0, 0, 0, 0, 0, 0], [0, 0, 0, 0, 0, 0]]",[],,,,instruct1,0,75,0.10000000000000002
10,mouselab,6240.0,47926,8,True,nEeUZVFCAc1G4mc,"[[115, 98, -113, 170, -66, 96], [-22, -10, 102, -49, 146, 46], [-78, 49, 0, -76, 52, -110], [37, 69, 76, 38, -83, 48]]",76,20.0,[],0,76,"[0.27, 0.28, 0.03, 0.42]","[0, 0, 0, 0, 0, 0]",3,2,"[[0, 0, 0, 0, 0, 0], [0, 0, 0, 0, 0, 0], [0, 0, 0, 0, 0, 0], [0, 0, 0, 0, 0, 0]]",[],,,,instruct1,1,75,0.10000000000000002
10,mouselab,16942.0,68357,8,True,dFMyfhGUKf335Wq,"[[90, 62, 145, 68, -26, -111], [61, 34, 42, 76, -6, -2], [77, -83, -47, 73, 35, -78], [-79, 59, -13, 107, 117, 96]]",-111,20.0,[],0,-111,"[0.21, 0.18, 0.04, 0.57]","[0, 0, 0, 0, 0, 0]",0,5,"[[0, 0, 0, 0, 0, 0], [0, 0, 0, 0, 0, 0], [0, 0, 0, 0, 0, 0], [0, 0, 0, 0, 0, 0]]",[],,,,instruct1,2,75,0.10000000000000002
10,mouselab,5065.0,169613,8,True,FTaQr9Vc3N5BtN0,"[[182, 62, 39, 33, 75, -39], [2, 35, -4, -11, -128, 158], [12, 133, -72, 12, 58, 26], [64, 53, 15, 48, 79, -69]]",2,20.0,[],0,2,"[0.010000000000000009, 0.68, 0.13, 0.18]","[0, 0, 0, 0, 0, 0]",1,0,"[[0, 0, 0, 0, 0, 0], [0, 0, 0, 0, 0, 0], [0, 0, 0, 0, 0, 0], [0, 0, 0, 0, 0, 0]]",[],,,,instruct2,0,75,0.10000000000000002
10,mouselab,2696.0,174445,8,True,2H2K5rRCXUmUneF,"[[-5, 9, -43, -91, 22, -50], [5, -43, -53, -14, 80, 50], [-162, -65, -24, 26, 81, 48], [-84, -11, 14, -98, 153, 118]]",22,20.0,[],0,22,"[0.13, 0.01, 0.41, 0.45]","[0, 0, 0, 0, 0, 0]",0,4,"[[0, 0, 0, 0, 0, 0], [0, 0, 0, 0, 0, 0], [0, 0, 0, 0, 0, 0], [0, 0, 0, 0, 0, 0]]",[],,,dominating,instruct2,1,75,0.10000000000000002
10,mouselab,1913.0,178945,8,True,JAHFEh04PXDWEXh,"[[63, -91, -11, -55, 96, 3], [-65, 27, -60, 70, 50, 51], [-102, 115, -103, 25, 14, 48], [-98, -92, 60, -3, 1, -133]]",1,20.0,[],0,1,"[0.02, 0.02, 0.09, 0.87]","[0, 0, 0, 0, 0, 0]",3,4,"[[0, 0, 0, 0, 0, 0], [0, 0, 0, 0, 0, 0], [0, 0, 0, 0, 0, 0], [0, 0, 0, 0, 0, 0]]",[],,,,instruct2,2,75,0.10000000000000002
10,mouselab,21547.0,202971,8,True,ltrwK3KJtmSGlBw,"[[83, -66, -139, -75, -108, 25], [66, 24, -21, 22, -17, -85], [32, 179, -29, -97, -50, -37], [104, 4, -93, 10, -56, 18]]",16,20.0,"[13965, 16553]",16,32,"[0.13, 0.02, 0.78, 0.07]","[36, 0, 0, 0, 0, 0]",2,0,"[[83, 0, 0, 0, 0, 0], [0, 0, 0, 0, 0, 0], [32, 0, 0, 0, 0, 0], [0, 0, 0, 0, 0, 0]]","[0, 12]",,,,instruct3,0,75,0.10000000000000002
10,mouselab,21856.0,227131,8,True,mfqNgrWLCngjYvI,"[[-12, 85, 106, 92, -20, -73], [7, -60, -62, 29, -9, 16], [65, -31, 5, 113, -113, -100], [93, 111, 43, -124, -5, -39]]",82,20.0,"[3379, 5271, 20576]",24,106,"[0.94, 0.03, 0.01, 0.02]","[-11, 0, 100, 86, 0, 0]",0,2,"[[-12, 0, 106, 92, 0, 0], [0, 0, 0, 0, 0, 0], [0, 0, 0, 0, 0, 0], [0, 0, 0, 0, 0, 0]]","[0, 2, 3]",,,,instruct3,1,75,0.10000000000000002
10,mouselab,21147.0,250259,8,True,7AfAH9c0lNBVLIV,"[[-83, -94, 84, 49, 63, -113], [-38, 62, 44, -97, -40, 74], [72, 48, -105, 97, 19, -63], [68, -61, -21, 56, 24, -20]]",-69,20.0,"[3050, 3782, 4836, 9557, 10094, 10432]",48,-21,"[0.62, 0.01, 0.04, 0.33]","[-51, -58, 52, 30, 39, -70]",3,2,"[[-83, -94, 84, 49, 63, -113], [0, 0, 0, 0, 0, 0], [0, 0, 0, 0, 0, 0], [0, 0, 0, 0, 0, 0]]","[0, 1, 2, 3, 4, 5]",,,,instruct3,2,75,0.10000000000000002
10,mouselab,22998.0,437670,8,True,YJJw7eiH44fE6qH,"[[134, -56, 47, -91, 36, -34], [-16, -58, -18, 83, 25, -12], [-50, -5, 151, -64, -117, 35], [-25, 70, -104, -123, 16, -106]]",135,20.0,"[3329, 4461]",16,151,"[0.14, 0.15, 0.68, 0.03]","[-34, 0, 103, 0, 0, 0]",2,2,"[[0, 0, 0, 0, 0, 0], [0, 0, 0, 0, 0, 0], [-50, 0, 151, 0, 0, 0], [0, 0, 0, 0, 0, 0]]","[12, 14]",,,,test,0,75,0.10000000000000002
10,mouselab,20589.0,460132,8,True,eewoJML5byS5lDR,"[[10, 31, 72, 53, 203, -42], [-94, -24, -108, 45, 60, 116], [68, -24, -24, -43, -56, 41], [-66, -108, -108, 5, -136, 62]]",68,20.0,"[2210, 2893, 3666, 5228, 5736, 6298]",48,116,"[0.33, 0.64, 0.01, 0.02]","[-60, -15, -69, 29, 38, 74]",1,5,"[[0, 0, 0, 0, 0, 0], [-94, -24, -108, 45, 60, 116], [0, 0, 0, 0, 0, 0], [0, 0, 0, 0, 0, 0]]","[6, 7, 8, 9, 10, 11]",,,,test,1,75,0.10000000000000002
10,mouselab,26854.0,489846,8,True,yROhrIV95LXvJ1R,"[[-55, 39, -93, 74, 65, -179], [-47, -38, 69, 46, -12, -26], [-55, -132, -10, 93, -70, -98], [52, -33, -3, -200, -11, 69]]",21,20.0,"[2076, 2832, 3513, 4369, 5100, 5501]",48,69,"[0.010000000000000009, 0.03, 0.03, 0.93]","[48, -31, -3, -186, -10, 64]",3,5,"[[0, 0, 0, 0, 0, 0], [0, 0, 0, 0, 0, 0], [0, 0, 0, 0, 0, 0], [52, -33, -3, -200, -11, 69]]","[18, 19, 20, 21, 22, 23]",,,,test,2,75,0.10000000000000002
10,mouselab,25729.0,517122,8,True,Lm1nZBkmZNobSeb,"[[100, -201, 72, -34, -17, -50], [-57, 21, 8, 98, 105, -11], [-11, -3, 18, -75, 35, -59], [-55, 10, -57, 2, 108, 55]]",66,20.0,"[2049, 3188, 5287, 7252]",32,98,"[0.01, 0.97, 0.01, 0.01]","[-55, 20, 8, 95, 0, 0]",1,3,"[[0, 0, 0, 0, 0, 0], [-57, 21, 8, 98, 0, 0], [0, 0, 0, 0, 0, 0], [0, 0, 0, 0, 0, 0]]","[6, 8, 7, 9]",,,,test,3,75,0.10000000000000002
10,mouselab,20449.0,539066,8,True,EBtdm5DVLUTiazA,"[[44, 57, 85, 66, -63, 28], [32, 37, 17, -160, -78, 47], [56, -23, -97, -76, -14, 61], [87, -20, 103, -44, -7, 73]]",79,20.0,"[3418, 4315, 5040]",24,103,"[0.05, 0.14, 0.16, 0.65]","[57, -13, 67, 0, 0, 0]",3,2,"[[0, 0, 0, 0, 0, 0], [0, 0, 0, 0, 0, 0], [0, 0, 0, 0, 0, 0], [87, -20, 103, 0, 0, 0]]","[18, 19, 20]",,,,test,4,75,0.10000000000000002
10,mouselab,20695.0,563898,8,True,CZFDePZP6wfd4qg,"[[-82, 153, -40, -70, 121, -58], [12, 78, -86, 65, 134, 64], [69, 222, -92, -39, -86, 53], [113, -33, -36, 72, -26, -59]]",-57,20.0,"[2313, 3728, 4683]",24,-33,"[0.3, 0.55, 0.02, 0.13]","[7, 43, -47, 0, 0, 0]",3,1,"[[0, 0, 0, 0, 0, 0], [12, 78, -86, 0, 0, 0], [0, 0, 0, 0, 0, 0], [0, 0, 0, 0, 0, 0]]","[6, 7, 8]",,,,test,5,75,0.10000000000000002
10,mouselab,20522.0,585855,8,True,uyFo6UBnSe6vCqF,"[[-72, 64, 61, -46, -20, -1], [-20, -121, 66, -119, 40, 35], [-61, 32, -62, -67, -72, 53], [61, 85, 8, 104, -41, -24]]",18,20.0,"[2151, 2703, 3667, 4659, 5169, 5576]",48,66,"[0.010000000000000009, 0.55, 0.01, 0.43]","[-11, -67, 36, -65, 22, 19]",1,2,"[[0, 0, 0, 0, 0, 0], [-20, -121, 66, -119, 40, 35], [0, 0, 0, 0, 0, 0], [0, 0, 0, 0, 0, 0]]","[6, 7, 8, 9, 10, 11]",,,,test,6,75,0.10000000000000002
10,mouselab,20375.0,607589,8,True,xTmr39yD9iUXlqP,"[[47, -20, -65, 9, 65, -56], [30, -69, -75, -32, -70, 12], [-84, -103, 52, -68, 8, -141], [51, -45, 65, -13, -16, 93]]",4,20.0,"[1116, 1549, 1994, 2607, 3175, 3694]",48,52,"[0.01, 0.02, 0.96, 0.01]","[-81, -99, 50, -65, 8, -135]",2,2,"[[0, 0, 0, 0, 0, 0], [0, 0, 0, 0, 0, 0], [-84, -103, 52, -68, 8, -141], [0, 0, 0, 0, 0, 0]]","[12, 13, 14, 15, 16, 17]",,,,test,7,75,0.10000000000000002
10,mouselab,27199.0,636548,8,True,PptganTKWvLZ9y6,"[[-35, 18, 9, 97, 17, -124], [-29, 46, 44, 186, 16, 15], [80, -188, -27, 161, -28, 15], [-23, -43, 69, 17, 84, 10]]",65,20.0,"[2496, 3181, 4144, 7012]",32,97,"[0.42, 0.45, 0.01, 0.12]","[-13, 21, 20, 84, 0, 0]",0,3,"[[0, 0, 0, 0, 0, 0], [-29, 46, 44, 186, 0, 0], [0, 0, 0, 0, 0, 0], [0, 0, 0, 0, 0, 0]]","[6, 7, 8, 9]",,,,test,8,75,0.10000000000000002
10,mouselab,20519.0,658419,8,True,LTxbnjhX1iv5NAN,"[[-86, 65, 86, -59, -30, -39], [107, -138, 63, 80, -95, 99], [79, 150, 45, -61, -35, 51], [-3, -97, -4, 92, 52, 62]]",-3,20.0,"[2353, 2909, 3654, 5746, 6441, 6753]",48,45,"[0.9, 0.07, 0.01, 0.02]","[-77, 59, 77, -53, -27, -35]",2,2,"[[-86, 65, 86, -59, -30, -39], [0, 0, 0, 0, 0, 0], [0, 0, 0, 0, 0, 0], [0, 0, 0, 0, 0, 0]]","[0, 1, 2, 3, 4, 5]",,,,test,9,75,0.10000000000000002
10,mouselab,29961.0,689492,8,True,EERWIQNrLW4JRA6,"[[99, 14, 10, -242, -18, 23], [25, 165, 39, 1, -48, -16], [-27, -35, -36, 61, 71, -20], [-11, -126, -62, 80, -29, 172]]",75,20.0,"[1719, 2280, 3390]",24,99,"[0.86, 0.12, 0.01, 0.01]","[85, 12, 9, 0, 0, 0]",0,0,"[[99, 14, 10, 0, 0, 0], [0, 0, 0, 0, 0, 0], [0, 0, 0, 0, 0, 0], [0, 0, 0, 0, 0, 0]]","[0, 1, 2]",,,,test,10,75,0.10000000000000002
10,mouselab,21065.0,714387,8,True,k0An2Ii20UXu5LR,"[[37, 56, 12, 21, -175, 26], [4, -93, 169, -84, -58, -1], [-85, -19, 7, 45, 9, 29], [1, -36, -68, -101, -101, -4]]",-4,20.0,"[1709, 2213]",16,12,"[0.21, 0.59, 0.01, 0.19]","[2, 0, 100, 0, 0, 0]",0,2,"[[0, 0, 0, 0, 0, 0], [4, 0, 169, 0, 0, 0], [0, 0, 0, 0, 0, 0], [0, 0, 0, 0, 0, 0]]","[6, 8]",,,,test,11,75,0.10000000000000002
10,mouselab,23996.0,739684,8,True,j10Z4OmyIoqmliW,"[[18, -54, 54, 12, -17, 113], [-9, 46, -122, 66, 3, -8], [-43, 146, 46, 8, 97, -21], [48, -131, 41, -28, 16, 74]]",18,20.0,"[1897, 2577, 4203, 5384, 6161, 6692]",48,66,"[0.01, 0.93, 0.02, 0.04]","[-8, 43, -113, 61, 3, -7]",1,3,"[[0, 0, 0, 0, 0, 0], [-9, 46, -122, 66, 3, -8], [0, 0, 0, 0, 0, 0], [0, 0, 0, 0, 0, 0]]","[6, 7, 8, 9, 10, 11]",,,,test,12,75,0.10000000000000002
10,mouselab,23557.0,764855,8,True,pQrPhYPNV21ehiw,"[[79, 90, -29, 57, 0, -48], [-55, -100, -49, -65, -30, 15], [-47, -86, -34, 7, -25, -5], [-56, -86, -57, -99, 54, 74]]",-147,20.0,"[2727, 3237, 4285, 4998, 5495, 5978]",48,-99,"[0.02, 0.02, 0.85, 0.11]","[-40, -73, -29, 6, -21, -4]",3,3,"[[0, 0, 0, 0, 0, 0], [0, 0, 0, 0, 0, 0], [-47, -86, -34, 7, -25, -5], [0, 0, 0, 0, 0, 0]]","[12, 13, 14, 15, 16, 17]",,,,test,13,75,0.10000000000000002
10,mouselab,23492.0,790024,8,True,vNxd6eruRliKojq,"[[98, 2, -7, -133, 3, 55], [55, -78, -82, -65, -4, 73], [112, 32, 26, -119, 94, 27], [37, -42, -23, 148, 150, 12]]",50,20.0,"[1889, 2303, 2808, 3925, 4672, 5013]",48,98,"[0.64, 0.19, 0.15, 0.02]","[63, 1, -4, -85, 2, 35]",0,0,"[[98, 2, -7, -133, 3, 55], [0, 0, 0, 0, 0, 0], [0, 0, 0, 0, 0, 0], [0, 0, 0, 0, 0, 0]]","[0, 1, 2, 3, 4, 5]",,,,test,14,75,0.10000000000000002
10,mouselab,21336.0,812527,8,True,GD9tVC59venbHdN,"[[81, -8, 95, 70, -21, -39], [43, 17, 192, 9, -10, 31], [-37, -77, 82, 49, -58, 64], [-85, 69, 47, 118, -7, 24]]",57,20.0,"[2241, 3019, 3893]",24,81,"[0.76, 0.03, 0.18, 0.03]","[62, -6, 0, 53, 0, 0]",0,0,"[[81, -8, 0, 70, 0, 0], [0, 0, 0, 0, 0, 0], [0, 0, 0, 0, 0, 0], [0, 0, 0, 0, 0, 0]]","[0, 1, 3]",,,,test,15,75,0.10000000000000002
10,mouselab,20466.0,834237,8,True,tXU6sLxtyjwBCUf,"[[-107, -137, -39, 84, -137, 142], [-144, 203, 38, 94, -66, 54], [-32, 137, -73, 138, -29, -47], [-5, 60, 145, 58, 69, -51]]",187,20.0,"[1584, 2238]",16,203,"[0.12, 0.72, 0.03, 0.13]","[-104, 146, 0, 0, 0, 0]",1,1,"[[0, 0, 0, 0, 0, 0], [-144, 203, 0, 0, 0, 0], [0, 0, 0, 0, 0, 0], [0, 0, 0, 0, 0, 0]]","[6, 7]",,,,test,16,75,0.10000000000000002
10,mouselab,20481.0,856065,8,True,uS8jTc5bj986muw,"[[-83, 71, -37, 64, -1, 3], [-14, -51, -6, -11, 17, -9], [2, 87, -100, -57, -62, 103], [75, -81, -119, -119, 46, -5]]",55,20.0,"[1420, 1814, 2569, 3490, 3899, 4277]",48,103,"[0.009999999999999898, 0.05, 0.93, 0.01]","[2, 81, -93, -53, -58, 96]",2,5,"[[0, 0, 0, 0, 0, 0], [0, 0, 0, 0, 0, 0], [2, 87, -100, -57, -62, 103], [0, 0, 0, 0, 0, 0]]","[12, 13, 14, 15, 16, 17]",,,,test,17,75,0.10000000000000002
10,mouselab,20662.0,878316,8,True,0LxhqpdnOxZwPx1,"[[24, 115, -107, 225, -128, 142], [41, -17, -121, -63, 33, 77], [41, -92, 3, -129, -45, 4], [179, 66, -79, 19, 58, -22]]",-7,20.0,"[1622, 2514, 3131, 4935, 5444, 5862]",48,41,"[1.1102230246251565e-16, 0.08, 0.83, 0.09]","[34, -76, 2, -107, -37, 3]",2,0,"[[0, 0, 0, 0, 0, 0], [0, 0, 0, 0, 0, 0], [41, -92, 3, -129, -45, 4], [0, 0, 0, 0, 0, 0]]","[12, 13, 14, 15, 16, 17]",,,,test,18,75,0.10000000000000002
10,mouselab,23469.0,903871,8,True,n8N5uqbD11kHBB5,"[[-68, -23, -1, 35, -160, 13], [-159, 14, -32, 70, -15, -177], [-62, 60, 26, 5, 64, 37], [-68, -45, -139, 34, 41, -35]]",-13,20.0,"[2307, 2722, 3789, 4659, 5160, 5862]",48,35,"[0.23, 0.09, 0.01, 0.67]","[-46, -30, -93, 23, 27, -23]",0,3,"[[0, 0, 0, 0, 0, 0], [0, 0, 0, 0, 0, 0], [0, 0, 0, 0, 0, 0], [-68, -45, -139, 34, 41, -35]]","[18, 19, 21, 22, 23, 20]",,,,test,19,75,0.10000000000000002
2,mouselab,9287.0,21346,0,True,KmJVF2O061O9wka,"[[-11, -24, -129, 73, -12, 131], [-9, 84, 99, 60, 60, 58], [-101, -34, -196, 51, 61, 20], [122, 78, 29, 57, -22, -2]]",-101,20.0,[],0,-101,"[0.25, 0.34, 0.19, 0.22]","[0, 0, 0, 0, 0, 0]",2,0,"[[0, 0, 0, 0, 0, 0], [0, 0, 0, 0, 0, 0], [0, 0, 0, 0, 0, 0], [0, 0, 0, 0, 0, 0]]",[],,,,instruct1,0,75,10.000000000000009
2,mouselab,6115.0,29710,0,True,ufwDOEQYZMaakNM,"[[-90, 3, 21, -139, 50, -11], [63, -14, -89, -15, -30, -69], [1, 29, 122, -49, 60, -58], [-51, -39, 57, 19, 127, -26]]",57,20.0,[],0,57,"[0.23, 0.35, 0.22, 0.2]","[0, 0, 0, 0, 0, 0]",3,2,"[[0, 0, 0, 0, 0, 0], [0, 0, 0, 0, 0, 0], [0, 0, 0, 0, 0, 0], [0, 0, 0, 0, 0, 0]]",[],,,,instruct1,1,75,10.000000000000009
2,mouselab,4118.0,36601,0,True,KQUm1G6X7S7s5dg,"[[-18, -4, -2, 31, -6, 43], [-8, 95, 91, 13, 47, 41], [-16, 1, 43, 105, -54, -15], [-4, 82, -111, -67, -25, -126]]",43,20.0,[],0,43,"[0.21, 0.18, 0.04, 0.57]","[0, 0, 0, 0, 0, 0]",0,5,"[[0, 0, 0, 0, 0, 0], [0, 0, 0, 0, 0, 0], [0, 0, 0, 0, 0, 0], [0, 0, 0, 0, 0, 0]]",[],,,,instruct1,2,75,10.000000000000009
2,mouselab,268424.0,391471,0,True,8KRi3gpD56McsmX,"[[-117, 53, 137, 116, 78, 71], [61, -44, 35, 40, -22, 71], [-55, -92, -190, -94, 112, 0], [137, -17, 52, 154, -6, -60]]",35,20.0,[],0,35,"[0.32, 0.27, 0.24, 0.17]","[0, 0, 0, 0, 0, 0]",1,2,"[[0, 0, 0, 0, 0, 0], [0, 0, 0, 0, 0, 0], [0, 0, 0, 0, 0, 0], [0, 0, 0, 0, 0, 0]]",[],,,,instruct2,0,75,10.000000000000009
2,mouselab,24882.0,418961,0,True,m4oMFTnOfNTQA3a,"[[40, 180, 166, -33, -12, 80], [12, 104, -3, 64, 26, 93], [-101, 196, -26, 187, 84, 2], [-57, 98, -29, 89, -57, -25]]",196,20.0,[],0,196,"[0.21, 0.25, 0.26, 0.28]","[0, 0, 0, 0, 0, 0]",2,1,"[[0, 0, 0, 0, 0, 0], [0, 0, 0, 0, 0, 0], [0, 0, 0, 0, 0, 0], [0, 0, 0, 0, 0, 0]]",[],,,dominating,instruct2,1,75,10.000000000000009
2,mouselab,20043.0,441702,0,True,xTfqufUPmFL5ZUQ,"[[15, 33, -53, 10, 19, 3], [44, -35, -72, 78, -110, 66], [-72, -24, -11, -19, 97, -144], [20, 4, 17, 8, -51, 0]]",20,20.0,[],0,20,"[0.22, 0.21, 0.37, 0.2]","[0, 0, 0, 0, 0, 0]",3,0,"[[0, 0, 0, 0, 0, 0], [0, 0, 0, 0, 0, 0], [0, 0, 0, 0, 0, 0], [0, 0, 0, 0, 0, 0]]",[],,,,instruct2,2,75,10.000000000000009
2,mouselab,56441.0,500977,0,True,Im0WMVeT8ZSYAOx,"[[-90, -38, -113, -57, -21, -34], [77, 56, 77, 74, -106, -28], [-111, -163, 91, -87, -84, 4], [53, 159, -120, 8, -18, 32]]",-106,20.0,"[11984, 12545, 12950, 13354, 13744, 14489, 14887, 15293, 15651, 16035, 16473, 17254, 17656, 18027, 18385, 18792, 19164, 19586, 20134, 20528, 20968, 21420, 21901, 22356]",0,-106,"[0.19, 0.31, 0.33, 0.17]","[-21, -17, 12, -15, -68, -8]",1,4,"[[-90, -38, -113, -57, -21, -34], [77, 56, 77, 74, -106, -28], [-111, -163, 91, -87, -84, 4], [53, 159, -120, 8, -18, 32]]","[6, 7, 8, 9, 10, 11, 17, 23, 22, 16, 15, 14, 21, 20, 19, 13, 12, 18, 0, 1, 2, 3, 4, 5]",,,,instruct3,0,75,10.000000000000009
2,mouselab,24980.0,527157,0,True,p9FZjcojg3TSIaF,"[[-50, -41, 22, -90, 78, 110], [-18, -50, -10, -56, 18, 14], [-115, 3, -55, -51, -45, 1], [-85, -65, -1, -55, -43, 4]]",110,20.0,"[1402, 1800, 2348, 2881, 3269, 3623, 4032, 4528, 4919, 5321, 5696, 6069, 6443, 7219, 7578, 8011, 8544, 8981, 9354, 9759, 10147, 10537, 10925, 11302]",0,110,"[0.4, 0.17, 0.18, 0.25]","[-65, -41, -3, -68, 15, 48]",0,5,"[[-50, -41, 22, -90, 78, 110], [-18, -50, -10, -56, 18, 14], [-115, 3, -55, -51, -45, 1], [-85, -65, -1, -55, -43, 4]]","[0, 6, 1, 2, 3, 4, 5, 23, 22, 21, 20, 19, 18, 12, 13, 7, 8, 14, 15, 9, 10, 16, 17, 11]",,,,instruct3,1,75,10.000000000000009
2,mouselab,20310.0,548839,0,True,j7XhWAoHVlAXXAz,"[[-64, -9, 37, 18, 0, 1], [18, 7, -53, -108, 104, 123], [-24, -2, -41, 8, -9, -9], [-84, -15, 9, 38, 106, -71]]",-9,20.0,"[938, 1390, 1836, 2237, 2741, 3177, 3596, 4008, 4464, 4932, 5272, 5676, 6079, 6479, 6900, 7772, 8160, 8550, 8983, 9580, 10113, 11462, 11500, 11558]",0,-9,"[0.24000000000000002, 0.15, 0.3, 0.31]","[-46, -6, -9, 2, 46, -6]",2,4,"[[-64, -9, 37, 18, 0, 1], [18, 7, -53, -108, 104, 123], [-24, -2, -41, 8, -9, -9], [-84, -15, 9, 38, 106, -71]]","[0, 7, 14, 21, 16, 10, 11, 4, 9, 20, 19, 18, 12, 6, 13, 1, 2, 8, 3, 5, 15, 22, 23, 17]",,,,instruct3,2,75,10.000000000000009
2,mouselab,20578.0,572677,0,True,tGbaq2ekRfeVMGL,"[[148, 46, -133, 61, -81, 38], [-69, 137, 87, 13, 72, 54], [79, 132, -32, 91, -16, -103], [49, 65, -15, -153, 72, 7]]",46,20.0,"[908, 1375, 1747, 2510, 2868, 3269, 3674, 4080, 4437, 4857, 5231, 5621, 6002, 6365, 6772, 7169, 7542, 7960, 8334, 8722, 9120, 9490, 10609, 11159]",0,46,"[0.31, 0.25, 0.29, 0.15]","[59, 97, -31, 26, -1, -4]",0,1,"[[148, 46, -133, 61, -81, 38], [-69, 137, 87, 13, 72, 54], [79, 132, -32, 91, -16, -103], [49, 65, -15, -153, 72, 7]]","[0, 6, 12, 18, 19, 20, 21, 22, 23, 17, 11, 5, 4, 3, 2, 1, 7, 13, 14, 15, 16, 10, 9, 8]",,,,test,0,75,10.000000000000009
2,mouselab,20474.0,594208,0,True,dupkonpAcbSAlfm,"[[-64, 3, 99, 45, -102, -56], [66, -34, -13, 22, 240, 88], [3, -4, -16, 78, -16, 101], [-8, -2, -8, -32, 22, 17]]",17,20.0,"[743, 1153, 1553, 1945, 2332, 2754, 3155, 3546, 3951, 4324, 4691, 5109, 5498, 5902, 6300, 7109, 7513, 7902, 8306, 8689, 9416, 9806, 10228, 10656]",0,17,"[0.2, 0.35, 0.2, 0.25]","[9, -13, 10, 24, 66, 44]",3,5,"[[-64, 3, 99, 45, -102, -56], [66, -34, -13, 22, 240, 88], [3, -4, -16, 78, -16, 101], [-8, -2, -8, -32, 22, 17]]","[18, 19, 20, 21, 22, 23, 17, 11, 5, 4, 3, 2, 1, 0, 6, 12, 13, 14, 15, 16, 10, 9, 8, 7]",,,,test,1,75,10.000000000000009
2,mouselab,20680.0,616443,0,True,CMGjVRi1gG4Q0Fu,"[[-1, -107, -67, 19, -26, 59], [23, 70, 18, 175, -84, 34], [88, -27, 58, 82, 108, 29], [16, 44, 74, 27, -4, -20]]",19,20.0,"[789, 1199, 1619, 1999, 2373, 3117, 3491, 4254, 4688, 5124, 5514, 5886, 6271, 6662, 7065, 7471, 7928, 9090, 9770, 10159, 10536, 10908, 11304, 11693]",0,19,"[0.26, 0.22, 0.28, 0.24]","[33, -9, 21, 73, 4, 26]",0,3,"[[-1, -107, -67, 19, -26, 59], [23, 70, 18, 175, -84, 34], [88, -27, 58, 82, 108, 29], [16, 44, 74, 27, -4, -20]]","[0, 6, 12, 18, 19, 20, 21, 22, 23, 17, 11, 5, 4, 3, 2, 1, 7, 13, 14, 15, 16, 10, 9, 8]",,,,test,2,75,10.000000000000009
2,mouselab,20619.0,638874,0,True,PViw9u8Xi6g1B8d,"[[-50, 232, -5, 46, 84, 76], [-5, 3, -66, 83, 99, -148], [-40, 5, -57, 72, 6, -9], [16, 17, 49, -23, 14, 74]]",5,20.0,"[733, 1558, 1927, 2726, 3108, 3465, 3838, 4227, 5004, 5424, 5813, 6211, 6589, 6963, 7367, 7756, 8194, 8532, 8916, 9273, 9693, 10112, 10477, 10890]",0,5,"[0.24, 0.26, 0.25, 0.25]","[-19, 62, -20, 45, 51, -4]",2,1,"[[-50, 232, -5, 46, 84, 76], [-5, 3, -66, 83, 99, -148], [-40, 5, -57, 72, 6, -9], [16, 17, 49, -23, 14, 74]]","[0, 6, 12, 18, 19, 20, 21, 22, 23, 17, 11, 5, 4, 3, 2, 1, 7, 13, 14, 15, 16, 10, 9, 8]",,,,test,3,75,10.000000000000009
2,mouselab,20462.0,660350,0,True,ty42NK9rBNfmPdU,"[[28, 55, 75, -39, -21, 29], [-77, -60, 27, -41, -17, 13], [-24, 149, -71, 71, -91, -225], [53, 102, -54, -51, -107, 93]]",102,20.0,"[765, 1169, 1866, 2661, 3084, 3486, 3887, 4280, 4723, 5144, 5545, 6373, 6747, 7103, 7524, 7912, 8300, 8721, 9125, 9514, 9973, 10347, 10735, 11107]",0,102,"[0.26, 0.18, 0.21, 0.35]","[7, 70, -9, -20, -65, -5]",3,1,"[[28, 55, 75, -39, -21, 29], [-77, -60, 27, -41, -17, 13], [-24, 149, -71, 71, -91, -225], [53, 102, -54, -51, -107, 93]]","[0, 6, 12, 18, 19, 20, 21, 22, 23, 17, 11, 5, 4, 3, 2, 1, 7, 13, 14, 15, 16, 10, 9, 8]",,,,test,4,75,10.000000000000009
2,mouselab,20235.0,681493,0,True,uH8gcgWUEoa2hfm,"[[-110, -111, 7, 18, 20, -36], [-15, -77, -21, 87, -24, 20], [-24, -17, -91, 83, -97, -109], [-48, 37, -25, -70, -102, -3]]",18,20.0,"[719, 1155, 1544, 1933, 2337, 3098, 3505, 4232, 4645, 5066, 5471, 5876, 6263, 6671, 7053, 7467, 7856, 8262, 8667, 9051, 9425, 9799, 10157, 10591]",0,18,"[0.21, 0.28, 0.24, 0.27]","[-46, -39, -33, 29, -53, -29]",0,3,"[[-110, -111, 7, 18, 20, -36], [-15, -77, -21, 87, -24, 20], [-24, -17, -91, 83, -97, -109], [-48, 37, -25, -70, -102, -3]]","[0, 6, 12, 18, 19, 20, 21, 22, 23, 17, 11, 5, 4, 3, 2, 1, 7, 13, 14, 15, 16, 10, 9, 8]",,,,test,5,75,10.000000000000009
2,mouselab,21306.0,704234,0,True,iY5ihY525D06K48,"[[-45, -34, -5, 9, -41, -82], [-4, -65, -31, -8, -27, -9], [-20, 43, 47, 75, 21, 5], [-25, 15, -55, -45, -20, -11]]",75,20.0,"[701, 1144, 1547, 2279, 2669, 3058, 3447, 3835, 4579, 4959, 5373, 5744, 6136, 6493, 6883, 7272, 7647, 8024, 8394, 8782, 9188, 9562, 9925, 10323]",0,75,"[0.15000000000000002, 0.3, 0.28, 0.27]","[-20, -9, -12, 8, -14, -17]",2,3,"[[-45, -34, -5, 9, -41, -82], [-4, -65, -31, -8, -27, -9], [-20, 43, 47, 75, 21, 5], [-25, 15, -55, -45, -20, -11]]","[0, 6, 12, 18, 19, 20, 21, 22, 23, 17, 11, 5, 4, 3, 2, 1, 7, 13, 14, 15, 16, 10, 9, 8]",,,,test,6,75,10.000000000000009
2,mouselab,20345.0,726407,0,True,pvGuxwjvCLZF4WG,"[[-48, -101, -55, -147, 94, -162], [52, 86, 94, -80, -31, -4], [-97, 25, -99, 44, 36, 19], [-69, -86, 34, -77, -49, 74]]",-55,20.0,"[717, 1076, 1466, 2189, 2580, 2969, 3359, 3743, 4107, 4532, 4920, 5295, 5684, 6057, 6466, 6841, 7196, 7620, 8005, 8380, 8756, 9115, 9487, 9838]",0,-55,"[0.23, 0.4, 0.16, 0.21]","[-20, -3, 16, -75, 5, -20]",0,2,"[[-48, -101, -55, -147, 94, -162], [52, 86, 94, -80, -31, -4], [-97, 25, -99, 44, 36, 19], [-69, -86, 34, -77, -49, 74]]","[0, 6, 12, 18, 19, 20, 21, 22, 23, 17, 11, 5, 4, 3, 2, 1, 7, 13, 14, 15, 16, 10, 9, 8]",,,,test,7,75,10.000000000000009
2,mouselab,20646.0,747891,0,True,1Ay26TgLsQaGf51,"[[-114, -32, -21, 9, 82, -25], [-43, 27, -193, 13, 65, 10], [-95, 7, 39, 35, 50, -53], [32, -17, 64, -49, 55, -74]]",65,20.0,"[687, 1108, 1515, 1881, 2257, 2647, 3115, 3924, 4361, 4767, 5171, 5607, 5957, 6329, 6751, 7124, 7508, 7906, 8298, 8705, 9058, 9398, 9786, 10583]",0,65,"[0.24, 0.27, 0.23, 0.26]","[-52, -3, -32, 1, 63, -35]",1,4,"[[-114, -32, -21, 9, 82, -25], [-43, 27, -193, 13, 65, 10], [-95, 7, 39, 35, 50, -53], [32, -17, 64, -49, 55, -74]]","[0, 6, 12, 18, 19, 21, 20, 22, 23, 17, 11, 5, 4, 3, 2, 1, 7, 13, 14, 15, 16, 10, 9, 8]",,,,test,8,75,10.000000000000009
2,mouselab,20372.0,769916,0,True,JaKarNU4ENjuDlm,"[[129, 45, -40, -61, -72, 14], [-87, -72, 105, -178, -33, 70], [166, 38, 12, 26, 85, -39], [21, -47, -32, 16, 47, -31]]",-87,20.0,"[775, 1222, 1593, 1966, 2338, 2726, 3102, 3455, 3852, 4208, 4582, 4974, 5378, 5782, 6519, 6898, 7245, 7650, 8054, 8444, 8800, 9153, 9529, 9918]",0,-87,"[0.1, 0.38, 0.31, 0.21]","[36, -21, 33, -62, 16, 9]",1,0,"[[129, 45, -40, -61, -72, 14], [-87, -72, 105, -178, -33, 70], [166, 38, 12, 26, 85, -39], [21, -47, -32, 16, 47, -31]]","[6, 0, 1, 2, 3, 4, 5, 11, 17, 23, 22, 21, 20, 19, 18, 12, 13, 7, 8, 9, 10, 16, 15, 14]",,,,test,9,75,10.000000000000009
2,mouselab,20402.0,791307,0,True,jTpkWKNHY4CNxkr,"[[108, -192, -29, 102, -95, -8], [-59, -24, -6, -136, 102, -28], [111, -16, -121, 17, 129, 79], [59, -38, -18, 12, -67, -116]]",59,20.0,"[639, 1026, 1383, 1739, 2170, 2524, 3784, 4333, 5096, 5502, 5908, 6281, 6701, 7152, 7526, 7898, 8257, 8658, 9048, 9435, 9809, 10198, 10618, 11031]",0,59,"[0.17, 0.26, 0.25, 0.32]","[50, -55, -42, -10, 21, -26]",3,0,"[[108, -192, -29, 102, -95, -8], [-59, -24, -6, -136, 102, -28], [111, -16, -121, 17, 129, 79], [59, -38, -18, 12, -67, -116]]","[0, 1, 2, 3, 4, 5, 11, 10, 9, 8, 7, 6, 18, 12, 13, 14, 15, 16, 17, 23, 22, 21, 20, 19]",,,,test,10,75,10.000000000000009
2,mouselab,20573.0,812751,0,True,qqiVbqryVLFhcXQ,"[[-111, -43, -108, 97, -18, 42], [-17, -33, 138, 29, -17, -31], [-43, 57, 79, 0, 66, 8], [-52, -17, 65, -80, -117, -80]]",79,20.0,"[703, 1122, 1816, 2206, 2609, 3000, 3382, 3794, 4201, 4572, 4947, 5327, 5718, 6118, 6523, 7033, 7283, 7681, 9045, 9089, 9568, 9941, 10301, 10689]",0,79,"[0.18, 0.39, 0.2, 0.23]","[-47, -13, 65, 10, -24, -21]",2,2,"[[-111, -43, -108, 97, -18, 42], [-17, -33, 138, 29, -17, -31], [-43, 57, 79, 0, 66, 8], [-52, -17, 65, -80, -117, -80]]","[0, 1, 2, 3, 4, 5, 11, 17, 23, 22, 21, 20, 19, 18, 12, 13, 14, 15, 16, 10, 9, 8, 7, 6]",,,,test,11,75,10.000000000000009
2,mouselab,20479.0,834717,0,True,DtUUF6WiCh2bNtn,"[[152, 44, -8, 138, -24, -21], [118, 48, -108, -70, 40, -89], [-56, 44, -28, -23, 80, 63], [126, 221, -56, -106, -88, -27]]",118,20.0,"[732, 1102, 1489, 1850, 2222, 2593, 2980, 3387, 3767, 4498, 4905, 5588, 6010, 6384, 6764, 7169, 7531, 7898, 8286, 8661, 9073, 9446, 9829, 10225]",0,118,"[0.2500000000000002, 0.21, 0.18, 0.36]","[98, 109, -50, -22, -15, -22]",1,0,"[[152, 44, -8, 138, -24, -21], [118, 48, -108, -70, 40, -89], [-56, 44, -28, -23, 80, 63], [126, 221, -56, -106, -88, -27]]","[0, 6, 12, 18, 19, 20, 21, 22, 23, 17, 5, 11, 4, 3, 2, 1, 7, 13, 14, 15, 16, 10, 9, 8]",,,,test,12,75,10.000000000000009
2,mouselab,20437.0,856316,0,True,uAWLa7AB2EigNyt,"[[68, -52, -12, 89, 65, 85], [57, 15, 79, 6, -91, -28], [4, 38, -29, -14, 62, -85], [54, 7, -10, -68, 44, -71]]",57,20.0,"[725, 1433, 1840, 2214, 2585, 3291, 3688, 4072, 4509, 4886, 5288, 5740, 6153, 6527, 6900, 7256, 7661, 8017, 8437, 8861, 9265, 9635, 10007, 10388]",0,57,"[0.3, 0.12, 0.23, 0.35]","[47, -3, -4, 0, 38, -22]",1,0,"[[68, -52, -12, 89, 65, 85], [57, 15, 79, 6, -91, -28], [4, 38, -29, -14, 62, -85], [54, 7, -10, -68, 44, -71]]","[0, 6, 12, 18, 19, 13, 7, 1, 2, 8, 20, 14, 21, 15, 9, 3, 4, 10, 22, 16, 23, 17, 11, 5]",,,,test,13,75,10.000000000000009
2,mouselab,20168.0,877471,0,True,D1RZHPelpPlTsLw,"[[-16, 60, -22, -89, 20, -14], [-39, 55, 57, -40, -143, 210], [11, -90, 93, -103, -11, 43], [7, -83, -136, -50, -101, 57]]",-14,20.0,"[1358, 1746, 2101, 2456, 2852, 3572, 4926, 5634, 6086, 6493, 6909, 7291, 7696, 8100, 8521, 8940, 9329, 10090, 10494, 10876, 11247, 11623, 12133, 12539]",0,-14,"[0.35, 0.2, 0.27, 0.18]","[-9, -7, 4, -76, -43, 59]",0,5,"[[-16, 60, -22, -89, 20, -14], [-39, 55, 57, -40, -143, 210], [11, -90, 93, -103, -11, 43], [7, -83, -136, -50, -101, 57]]","[0, 6, 12, 18, 19, 20, 21, 22, 23, 17, 11, 5, 4, 3, 2, 1, 7, 13, 14, 15, 9, 8, 10, 16]",,,,test,14,75,10.000000000000009
2,mouselab,20279.0,898615,0,True,AcrdfSeVXGbzay3,"[[-75, 22, 17, 13, 124, 130], [90, -14, 94, -21, -68, -43], [104, -120, 81, -81, -25, 10], [2, -100, -48, 1, 34, -24]]",-48,20.0,"[833, 2618, 3770, 4203, 4966, 5356, 5729, 6099, 6482, 6852, 7205, 7592, 7983, 8354, 8756, 9147, 9519, 10327, 10730, 11072, 11411, 11800, 12182, 12583]",0,-48,"[0.32, 0.18, 0.28, 0.22]","[22, -51, 34, -22, 28, 31]",3,2,"[[-75, 22, 17, 13, 124, 130], [90, -14, 94, -21, -68, -43], [104, -120, 81, -81, -25, 10], [2, -100, -48, 1, 34, -24]]","[6, 0, 1, 2, 3, 4, 5, 11, 17, 23, 22, 21, 20, 19, 18, 12, 13, 14, 15, 16, 10, 9, 8, 7]",,,,test,15,75,10.000000000000009
2,mouselab,20651.0,920192,0,True,BSzRGLphNoFr9S8,"[[77, 80, -47, -40, 39, 86], [-17, 72, -33, -112, 74, -80], [-51, -16, -19, -22, -59, -140], [29, 74, 40, 25, -95, 115]]",80,20.0,"[1779, 2178, 2534, 2905, 3295, 3683, 4069, 4491, 5278, 5699, 6118, 6521, 6910, 7316, 7702, 8108, 8512, 8899, 9300, 9720, 10091, 10512, 10949, 11400]",0,80,"[0.35, 0.17, 0.2, 0.28]","[22, 58, -15, -30, -12, 21]",0,1,"[[77, 80, -47, -40, 39, 86], [-17, 72, -33, -112, 74, -80], [-51, -16, -19, -22, -59, -140], [29, 74, 40, 25, -95, 115]]","[0, 6, 12, 18, 19, 20, 21, 22, 23, 17, 11, 5, 4, 10, 16, 15, 9, 3, 2, 8, 14, 13, 7, 1]",,,,test,16,75,10.000000000000009
2,mouselab,20612.0,942616,0,True,M37qiSEgNyuXj4W,"[[-62, 47, -50, -69, 124, -159], [126, 104, 73, -73, 64, -184], [-66, 77, -137, -42, 74, 25], [16, 15, -2, 107, 16, -129]]",74,20.0,"[1122, 1838, 2210, 2578, 2951, 3326, 4100, 4463, 4882, 5267, 5658, 6042, 6450, 6823, 7180, 7566, 7971, 8355, 9080, 9533, 9962, 10395, 10864, 11284]",0,74,"[0.22, 0.22, 0.25, 0.31]","[3, 57, -30, -9, 65, -109]",2,4,"[[-62, 47, -50, -69, 124, -159], [126, 104, 73, -73, 64, -184], [-66, 77, -137, -42, 74, 25], [16, 15, -2, 107, 16, -129]]","[0, 1, 2, 3, 4, 5, 11, 10, 9, 8, 7, 6, 12, 18, 19, 20, 21, 23, 22, 17, 16, 15, 14, 13]",,,,test,17,75,10.000000000000009
2,mouselab,20657.0,964439,0,True,Upnn6z3TT95X9QN,"[[57, 29, 70, -76, -9, -88], [21, 70, 124, -150, 67, -38], [14, -47, 55, -157, 53, -20], [100, -35, 166, 34, 43, 6]]",166,20.0,"[844, 1217, 1604, 1992, 2412, 2801, 3173, 3544, 4316, 4688, 5074, 5465, 5868, 6353, 6723, 7110, 7517, 7905, 8277, 8647, 9079, 9484, 10290, 10807]",0,166,"[0.23, 0.22, 0.33, 0.22]","[44, -1, 98, -95, 40, -34]",3,2,"[[57, 29, 70, -76, -9, -88], [21, 70, 124, -150, 67, -38], [14, -47, 55, -157, 53, -20], [100, -35, 166, 34, 43, 6]]","[0, 1, 2, 3, 4, 5, 11, 10, 9, 8, 7, 6, 18, 12, 13, 14, 15, 16, 17, 23, 22, 21, 20, 19]",,,,test,18,75,10.000000000000009
2,mouselab,20400.0,985838,0,True,TRbTjUzM32WiCfB,"[[37, 22, 94, 58, -40, -14], [-69, -23, -64, 48, 5, 18], [58, -38, -23, 113, 118, -20], [-72, 75, -91, 87, 18, 21]]",58,20.0,"[1113, 1562, 2285, 2674, 3075, 3466, 3851, 4258, 4644, 5033, 5430, 5800, 6222, 6628, 7029, 7421, 7847, 8222, 8609, 8981, 9369, 9757, 10145, 10525]",0,58,"[0.36, 0.27, 0.23, 0.14]","[-2, 3, -1, 72, 17, -2]",0,3,"[[37, 22, 94, 58, -40, -14], [-69, -23, -64, 48, 5, 18], [58, -38, -23, 113, 118, -20], [-72, 75, -91, 87, 18, 21]]","[1, 2, 3, 4, 5, 11, 17, 23, 22, 21, 20, 19, 18, 12, 6, 0, 7, 8, 9, 10, 16, 15, 14, 13]",,,,test,19,75,10.000000000000009
5,mouselab,10422.0,22638,8,False,KmJVF2O061O9wka,"[[-11, -24, -129, 73, -12, 131], [-9, 84, 99, 60, 60, 58], [-101, -34, -196, 51, 61, 20], [122, 78, 29, 57, -22, -2]]",-9,0.0,[],0,-9,"[0.25, 0.34, 0.19, 0.22]","[0, 0, 0, 0, 0, 0]",1,0,"[[0, 0, 0, 0, 0, 0], [0, 0, 0, 0, 0, 0], [0, 0, 0, 0, 0, 0], [0, 0, 0, 0, 0, 0]]",[],,,,instruct1,0,75,10.000000000000009
5,mouselab,6861.0,32572,8,False,ufwDOEQYZMaakNM,"[[-90, 3, 21, -139, 50, -11], [63, -14, -89, -15, -30, -69], [1, 29, 122, -49, 60, -58], [-51, -39, 57, 19, 127, -26]]",122,0.0,[],0,122,"[0.23, 0.35, 0.22, 0.2]","[0, 0, 0, 0, 0, 0]",2,2,"[[0, 0, 0, 0, 0, 0], [0, 0, 0, 0, 0, 0], [0, 0, 0, 0, 0, 0], [0, 0, 0, 0, 0, 0]]",[],,,,instruct1,1,75,10.000000000000009
5,mouselab,7819.0,44129,8,False,KQUm1G6X7S7s5dg,"[[-18, -4, -2, 31, -6, 43], [-8, 95, 91, 13, 47, 41], [-16, 1, 43, 105, -54, -15], [-4, 82, -111, -67, -25, -126]]",-126,0.0,[],0,-126,"[0.21, 0.18, 0.04, 0.57]","[0, 0, 0, 0, 0, 0]",3,5,"[[0, 0, 0, 0, 0, 0], [0, 0, 0, 0, 0, 0], [0, 0, 0, 0, 0, 0], [0, 0, 0, 0, 0, 0]]",[],,,,instruct1,2,75,10.000000000000009
5,mouselab,9844.0,127131,8,False,8KRi3gpD56McsmX,"[[-117, 53, 137, 116, 78, 71], [61, -44, 35, 40, -22, 71], [-55, -92, -190, -94, 112, 0], [137, -17, 52, 154, -6, -60]]",137,0.0,[],0,137,"[0.32, 0.27, 0.24, 0.17]","[0, 0, 0, 0, 0, 0]",0,2,"[[0, 0, 0, 0, 0, 0], [0, 0, 0, 0, 0, 0], [0, 0, 0, 0, 0, 0], [0, 0, 0, 0, 0, 0]]",[],,,,instruct2,0,75,10.000000000000009
5,mouselab,10268.0,139011,8,False,m4oMFTnOfNTQA3a,"[[40, 180, 166, -33, -12, 80], [12, 104, -3, 64, 26, 93], [-101, 196, -26, 187, 84, 2], [-57, 98, -29, 89, -57, -25]]",89,0.0,[],0,89,"[0.21, 0.25, 0.26, 0.28]","[0, 0, 0, 0, 0, 0]",3,3,"[[0, 0, 0, 0, 0, 0], [0, 0, 0, 0, 0, 0], [0, 0, 0, 0, 0, 0], [0, 0, 0, 0, 0, 0]]",[],,,dominating,instruct2,1,75,10.000000000000009
5,mouselab,9392.0,151589,8,False,xTfqufUPmFL5ZUQ,"[[15, 33, -53, 10, 19, 3], [44, -35, -72, 78, -110, 66], [-72, -24, -11, -19, 97, -144], [20, 4, 17, 8, -51, 0]]",-51,0.0,[],0,-51,"[0.22, 0.21, 0.37, 0.2]","[0, 0, 0, 0, 0, 0]",3,4,"[[0, 0, 0, 0, 0, 0], [0, 0, 0, 0, 0, 0], [0, 0, 0, 0, 0, 0], [0, 0, 0, 0, 0, 0]]",[],,,,instruct2,2,75,10.000000000000009
5,mouselab,17249.0,171702,8,False,Im0WMVeT8ZSYAOx,"[[-90, -38, -113, -57, -21, -34], [77, 56, 77, 74, -106, -28], [-111, -163, 91, -87, -84, 4], [53, 159, -120, 8, -18, 32]]",75,0.0,"[13545, 16247]",16,91,"[0.19, 0.31, 0.33, 0.17]","[0, 0, 30, -29, 0, 0]",2,2,"[[0, 0, 0, 0, 0, 0], [0, 0, 0, 0, 0, 0], [0, 0, 91, -87, 0, 0], [0, 0, 0, 0, 0, 0]]","[15, 14]",,,,instruct3,0,75,10.000000000000009
5,mouselab,4818.0,179146,8,False,p9FZjcojg3TSIaF,"[[-50, -41, 22, -90, 78, 110], [-18, -50, -10, -56, 18, 14], [-115, 3, -55, -51, -45, 1], [-85, -65, -1, -55, -43, 4]]",-2,0.0,"[2784, 3968]",16,14,"[0.4, 0.17, 0.18, 0.25]","[0, -16, 0, 0, 0, 44]",1,5,"[[0, -41, 0, 0, 0, 110], [0, 0, 0, 0, 0, 0], [0, 0, 0, 0, 0, 0], [0, 0, 0, 0, 0, 0]]","[1, 5]",,,,instruct3,1,75,10.000000000000009
5,mouselab,9550.0,190696,8,False,j7XhWAoHVlAXXAz,"[[-64, -9, 37, 18, 0, 1], [18, 7, -53, -108, 104, 123], [-24, -2, -41, 8, -9, -9], [-84, -15, 9, 38, 106, -71]]",22,0.0,"[5682, 6823]",16,38,"[0.24000000000000002, 0.15, 0.3, 0.31]","[0, 0, -12, 0, -3, 0]",3,3,"[[0, 0, 0, 0, 0, 0], [0, 0, 0, 0, 0, 0], [0, 0, -41, 0, -9, 0], [0, 0, 0, 0, 0, 0]]","[14, 16]",,,,instruct3,2,75,10.000000000000009
5,mouselab,4014.0,202792,8,False,tGbaq2ekRfeVMGL,"[[148, 46, -133, 61, -81, 38], [-69, 137, 87, 13, 72, 54], [79, 132, -32, 91, -16, -103], [49, 65, -15, -153, 72, 7]]",124,0.0,[3131],8,132,"[0.31, 0.25, 0.29, 0.15]","[0, 38, 0, 0, 0, 0]",2,1,"[[0, 0, 0, 0, 0, 0], [0, 0, 0, 0, 0, 0], [0, 132, 0, 0, 0, 0], [0, 0, 0, 0, 0, 0]]",[13],,,,test,0,75,10.000000000000009
5,mouselab,2874.0,206881,8,False,dupkonpAcbSAlfm,"[[-64, 3, 99, 45, -102, -56], [66, -34, -13, 22, 240, 88], [3, -4, -16, 78, -16, 101], [-8, -2, -8, -32, 22, 17]]",80,0.0,[1961],8,88,"[0.2, 0.35, 0.2, 0.25]","[0, 0, 0, 0, 0, 31]",1,5,"[[0, 0, 0, 0, 0, 0], [0, 0, 0, 0, 0, 88], [0, 0, 0, 0, 0, 0], [0, 0, 0, 0, 0, 0]]",[11],,,,test,1,75,10.000000000000009
5,mouselab,3507.0,211433,8,False,CMGjVRi1gG4Q0Fu,"[[-1, -107, -67, 19, -26, 59], [23, 70, 18, 175, -84, 34], [88, -27, 58, 82, 108, 29], [16, 44, 74, 27, -4, -20]]",8,0.0,[2587],8,16,"[0.26, 0.22, 0.28, 0.24]","[25, 0, 0, 0, 0, 0]",3,0,"[[0, 0, 0, 0, 0, 0], [0, 0, 0, 0, 0, 0], [88, 0, 0, 0, 0, 0], [0, 0, 0, 0, 0, 0]]",[12],,,,test,2,75,10.000000000000009
5,mouselab,6473.0,218996,8,False,PViw9u8Xi6g1B8d,"[[-50, 232, -5, 46, 84, 76], [-5, 3, -66, 83, 99, -148], [-40, 5, -57, 72, 6, -9], [16, 17, 49, -23, 14, 74]]",56,0.0,"[2995, 5548]",16,72,"[0.24, 0.26, 0.25, 0.25]","[0, 0, -17, 18, 0, 0]",2,3,"[[0, 0, 0, 0, 0, 0], [0, 0, -66, 0, 0, 0], [0, 0, 0, 72, 0, 0], [0, 0, 0, 0, 0, 0]]","[8, 15]",,,,test,3,75,10.000000000000009
5,mouselab,7004.0,227437,8,False,ty42NK9rBNfmPdU,"[[28, 55, 75, -39, -21, 29], [-77, -60, 27, -41, -17, 13], [-24, 149, -71, 71, -91, -225], [53, 102, -54, -51, -107, 93]]",-93,0.0,"[3358, 5719]",16,-77,"[0.26, 0.18, 0.21, 0.35]","[0, 0, -19, 0, -37, 0]",1,0,"[[0, 0, 0, 0, 0, 0], [0, 0, 0, 0, 0, 0], [0, 0, 0, 0, 0, 0], [0, 0, -54, 0, -107, 0]]","[22, 20]",,,,test,4,75,10.000000000000009
5,mouselab,5512.0,234750,8,False,uH8gcgWUEoa2hfm,"[[-110, -111, 7, 18, 20, -36], [-15, -77, -21, 87, -24, 20], [-24, -17, -91, 83, -97, -109], [-48, 37, -25, -70, -102, -3]]",-125,0.0,"[2977, 4036]",16,-109,"[0.21, 0.28, 0.24, 0.27]","[0, 0, -6, 0, -7, 0]",2,5,"[[0, 0, 0, 0, 0, 0], [0, 0, -21, 0, -24, 0], [0, 0, 0, 0, 0, 0], [0, 0, 0, 0, 0, 0]]","[8, 10]",,,,test,5,75,10.000000000000009
5,mouselab,9983.0,246132,8,False,iY5ihY525D06K48,"[[-45, -34, -5, 9, -41, -82], [-4, -65, -31, -8, -27, -9], [-20, 43, 47, 75, 21, 5], [-25, 15, -55, -45, -20, -11]]",-15,0.0,"[4052, 5888, 9262]",24,9,"[0.15000000000000002, 0.3, 0.28, 0.27]","[0, -19, 0, 19, 0, 0]",0,3,"[[0, 0, 0, 0, 0, 0], [0, -65, 0, -8, 0, 0], [0, 0, 0, 75, 0, 0], [0, 0, 0, 0, 0, 0]]","[7, 15, 9]",,,,test,6,75,10.000000000000009
5,mouselab,6177.0,253606,8,False,pvGuxwjvCLZF4WG,"[[-48, -101, -55, -147, 94, -162], [52, 86, 94, -80, -31, -4], [-97, 25, -99, 44, 36, 19], [-69, -86, 34, -77, -49, 74]]",-178,0.0,"[2333, 4818]",16,-162,"[0.23, 0.4, 0.16, 0.21]","[-16, 0, -16, 0, 0, 0]",0,5,"[[0, 0, 0, 0, 0, 0], [0, 0, 0, 0, 0, 0], [-97, 0, -99, 0, 0, 0], [0, 0, 0, 0, 0, 0]]","[12, 14]",,,,test,7,75,10.000000000000009
5,mouselab,1809.0,257335,8,False,1Ay26TgLsQaGf51,"[[-114, -32, -21, 9, 82, -25], [-43, 27, -193, 13, 65, 10], [-95, 7, 39, 35, 50, -53], [32, -17, 64, -49, 55, -74]]",-57,0.0,[853],8,-49,"[0.24, 0.27, 0.23, 0.26]","[0, 0, 0, 8, 0, 0]",3,3,"[[0, 0, 0, 0, 0, 0], [0, 0, 0, 0, 0, 0], [0, 0, 0, 35, 0, 0], [0, 0, 0, 0, 0, 0]]",[15],,,,test,8,75,10.000000000000009
5,mouselab,6807.0,266115,8,False,JaKarNU4ENjuDlm,"[[129, 45, -40, -61, -72, 14], [-87, -72, 105, -178, -33, 70], [166, 38, 12, 26, 85, -39], [21, -47, -32, 16, 47, -31]]",-64,0.0,"[916, 2721, 4080, 6016]",32,-32,"[0.1, 0.38, 0.31, 0.21]","[0, 0, 40, -68, 14, 0]",3,2,"[[0, 0, 0, 0, 0, 0], [0, 0, 105, -178, -33, 0], [0, 0, 0, 0, 85, 0], [0, 0, 0, 0, 0, 0]]","[16, 10, 9, 8]",,,,test,9,75,10.000000000000009
5,mouselab,5934.0,274182,8,False,jTpkWKNHY4CNxkr,"[[108, -192, -29, 102, -95, -8], [-59, -24, -6, -136, 102, -28], [111, -16, -121, 17, 129, 79], [59, -38, -18, 12, -67, -116]]",-52,0.0,"[2071, 3615, 4626]",24,-28,"[0.17, 0.26, 0.25, 0.32]","[0, -6, -2, -35, 0, 0]",1,5,"[[0, 0, 0, 0, 0, 0], [0, -24, -6, -136, 0, 0], [0, 0, 0, 0, 0, 0], [0, 0, 0, 0, 0, 0]]","[7, 8, 9]",,,,test,10,75,10.000000000000009
5,mouselab,8347.0,284834,8,False,qqiVbqryVLFhcXQ,"[[-111, -43, -108, 97, -18, 42], [-17, -33, 138, 29, -17, -31], [-43, 57, 79, 0, 66, 8], [-52, -17, 65, -80, -117, -80]]",-112,0.0,"[1712, 3348, 5308, 6679]",32,-80,"[0.18, 0.39, 0.2, 0.23]","[-9, -13, -19, 0, 0, 0]",3,3,"[[0, 0, -108, 0, 0, 0], [0, -33, 0, 0, 0, 0], [-43, 0, 0, 0, 0, 0], [0, 0, 0, 0, 0, 0]]","[12, 2, 7, 15]",,,,test,11,75,10.000000000000009
5,mouselab,4325.0,292428,8,False,DtUUF6WiCh2bNtn,"[[152, 44, -8, 138, -24, -21], [118, 48, -108, -70, 40, -89], [-56, 44, -28, -23, 80, 63], [126, 221, -56, -106, -88, -27]]",122,0.0,"[818, 3464]",16,138,"[0.2500000000000002, 0.21, 0.18, 0.36]","[0, 0, 0, 35, 8, 0]",0,3,"[[0, 0, 0, 138, 0, 0], [0, 0, 0, 0, 40, 0], [0, 0, 0, 0, 0, 0], [0, 0, 0, 0, 0, 0]]","[10, 3]",,,,test,12,75,10.000000000000009
5,mouselab,5440.0,299208,8,False,uAWLa7AB2EigNyt,"[[68, -52, -12, 89, 65, 85], [57, 15, 79, 6, -91, -28], [4, 38, -29, -14, 62, -85], [54, 7, -10, -68, 44, -71]]",52,0.0,"[3886, 4709]",16,68,"[0.3, 0.12, 0.23, 0.35]","[20, -16, 0, 0, 0, 0]",0,0,"[[68, -52, 0, 0, 0, 0], [0, 0, 0, 0, 0, 0], [0, 0, 0, 0, 0, 0], [0, 0, 0, 0, 0, 0]]","[1, 0]",,,,test,13,75,10.000000000000009
5,mouselab,7066.0,307589,8,False,D1RZHPelpPlTsLw,"[[-16, 60, -22, -89, 20, -14], [-39, 55, 57, -40, -143, 210], [11, -90, 93, -103, -11, 43], [7, -83, -136, -50, -101, 57]]",53,0.0,"[1831, 2689, 3959, 4823, 6137]",40,93,"[0.35, 0.2, 0.27, 0.18]","[0, 0, 29, -39, 0, 0]",2,2,"[[0, 0, -22, -89, 0, 0], [0, 0, 57, -40, 0, 0], [0, 0, 93, 0, 0, 0], [0, 0, 0, 0, 0, 0]]","[2, 3, 9, 8, 14]",,,,test,14,75,10.000000000000009
5,mouselab,4586.0,313316,8,False,AcrdfSeVXGbzay3,"[[-75, 22, 17, 13, 124, 130], [90, -14, 94, -21, -68, -43], [104, -120, 81, -81, -25, 10], [2, -100, -48, 1, 34, -24]]",1,0.0,"[1768, 3782]",16,17,"[0.32, 0.18, 0.28, 0.22]","[0, 0, 28, 0, 0, 0]",0,2,"[[0, 0, 17, 0, 0, 0], [0, 0, 0, 0, 0, 0], [0, 0, 81, 0, 0, 0], [0, 0, 0, 0, 0, 0]]","[2, 14]",,,,test,15,75,10.000000000000009
5,mouselab,5127.0,319761,8,False,BSzRGLphNoFr9S8,"[[77, 80, -47, -40, 39, 86], [-17, 72, -33, -112, 74, -80], [-51, -16, -19, -22, -59, -140], [29, 74, 40, 25, -95, 115]]",53,0.0,"[1772, 3226, 3932]",24,77,"[0.35, 0.17, 0.2, 0.28]","[14, 0, 0, 0, 0, 0]",0,0,"[[77, 0, 0, 0, 0, 0], [-17, 0, 0, 0, 0, 0], [-51, 0, 0, 0, 0, 0], [0, 0, 0, 0, 0, 0]]","[0, 6, 12]",,,,test,16,75,10.000000000000009
5,mouselab,3420.0,324370,8,False,M37qiSEgNyuXj4W,"[[-62, 47, -50, -69, 124, -159], [126, 104, 73, -73, 64, -184], [-66, 77, -137, -42, 74, 25], [16, 15, -2, 107, 16, -129]]",69,0.0,[1852],8,77,"[0.22, 0.22, 0.25, 0.31]","[0, 19, 0, 0, 0, 0]",2,1,"[[0, 0, 0, 0, 0, 0], [0, 0, 0, 0, 0, 0], [0, 77, 0, 0, 0, 0], [0, 0, 0, 0, 0, 0]]",[13],,,,test,17,75,10.000000000000009
5,mouselab,4895.0,330363,8,False,Upnn6z3TT95X9QN,"[[57, 29, 70, -76, -9, -88], [21, 70, 124, -150, 67, -38], [14, -47, 55, -157, 53, -20], [100, -35, 166, 34, 43, 6]]",51,0.0,"[1460, 4108]",16,67,"[0.23, 0.22, 0.33, 0.22]","[0, 0, 0, 0, 24, 0]",1,4,"[[0, 0, 0, 0, 0, 0], [0, 0, 0, 0, 67, 0], [0, 0, 0, 0, 0, 0], [0, 0, 0, 0, 43, 0]]","[10, 22]",,,,test,18,75,10.000000000000009
5,mouselab,6207.0,337709,8,False,TRbTjUzM32WiCfB,"[[37, 22, 94, 58, -40, -14], [-69, -23, -64, 48, 5, 18], [58, -38, -23, 113, 118, -20], [-72, 75, -91, 87, 18, 21]]",97,0.0,"[4016, 5464]",16,113,"[0.36, 0.27, 0.23, 0.14]","[0, 0, 0, 21, 0, -5]",2,3,"[[0, 0, 0, 58, 0, -14], [0, 0, 0, 0, 0, 0], [0, 0, 0, 0, 0, 0], [0, 0, 0, 0, 0, 0]]","[5, 3]",,,,test,19,75,10.000000000000009
6,mouselab,7504.0,12779,8,False,dBNl5dzyNSRu5ql,"[[31, -118, 22, -56, -123, 88], [-31, 37, 39, 10, 24, 22], [-158, 22, -6, 27, -86, -51], [-47, -24, -25, -115, -32, 5]]",31,0.0,[],0,31,"[0.22, 0.04, 0.73, 0.01]","[0, 0, 0, 0, 0, 0]",0,0,"[[0, 0, 0, 0, 0, 0], [0, 0, 0, 0, 0, 0], [0, 0, 0, 0, 0, 0], [0, 0, 0, 0, 0, 0]]",[],,,,instruct1,0,75,0.10000000000000002
6,mouselab,2120.0,16531,8,False,nEeUZVFCAc1G4mc,"[[115, 98, -113, 170, -66, 96], [-22, -10, 102, -49, 146, 46], [-78, 49, 0, -76, 52, -110], [37, 69, 76, 38, -83, 48]]",102,0.0,[],0,102,"[0.27, 0.28, 0.03, 0.42]","[0, 0, 0, 0, 0, 0]",1,2,"[[0, 0, 0, 0, 0, 0], [0, 0, 0, 0, 0, 0], [0, 0, 0, 0, 0, 0], [0, 0, 0, 0, 0, 0]]",[],,,,instruct1,1,75,0.10000000000000002
6,mouselab,5096.0,22811,8,False,dFMyfhGUKf335Wq,"[[90, 62, 145, 68, -26, -111], [61, 34, 42, 76, -6, -2], [77, -83, -47, 73, 35, -78], [-79, 59, -13, 107, 117, 96]]",96,0.0,[],0,96,"[0.21, 0.18, 0.04, 0.57]","[0, 0, 0, 0, 0, 0]",3,5,"[[0, 0, 0, 0, 0, 0], [0, 0, 0, 0, 0, 0], [0, 0, 0, 0, 0, 0], [0, 0, 0, 0, 0, 0]]",[],,,,instruct1,2,75,0.10000000000000002
6,mouselab,10375.0,95161,8,False,FTaQr9Vc3N5BtN0,"[[182, 62, 39, 33, 75, -39], [2, 35, -4, -11, -128, 158], [12, 133, -72, 12, 58, 26], [64, 53, 15, 48, 79, -69]]",158,0.0,[],0,158,"[0.010000000000000009, 0.68, 0.13, 0.18]","[0, 0, 0, 0, 0, 0]",1,5,"[[0, 0, 0, 0, 0, 0], [0, 0, 0, 0, 0, 0], [0, 0, 0, 0, 0, 0], [0, 0, 0, 0, 0, 0]]",[],,,,instruct2,0,75,0.10000000000000002
6,mouselab,5240.0,101585,8,False,2H2K5rRCXUmUneF,"[[-5, 9, -43, -91, 22, -50], [5, -43, -53, -14, 80, 50], [-162, -65, -24, 26, 81, 48], [-84, -11, 14, -98, 153, 118]]",22,0.0,[],0,22,"[0.13, 0.01, 0.41, 0.45]","[0, 0, 0, 0, 0, 0]",0,4,"[[0, 0, 0, 0, 0, 0], [0, 0, 0, 0, 0, 0], [0, 0, 0, 0, 0, 0], [0, 0, 0, 0, 0, 0]]",[],,,dominating,instruct2,1,75,0.10000000000000002
6,mouselab,8681.0,111473,8,False,JAHFEh04PXDWEXh,"[[63, -91, -11, -55, 96, 3], [-65, 27, -60, 70, 50, 51], [-102, 115, -103, 25, 14, 48], [-98, -92, 60, -3, 1, -133]]",60,0.0,[],0,60,"[0.02, 0.02, 0.09, 0.87]","[0, 0, 0, 0, 0, 0]",3,2,"[[0, 0, 0, 0, 0, 0], [0, 0, 0, 0, 0, 0], [0, 0, 0, 0, 0, 0], [0, 0, 0, 0, 0, 0]]",[],,,,instruct2,2,75,0.10000000000000002
6,mouselab,8784.0,122737,8,False,ltrwK3KJtmSGlBw,"[[83, -66, -139, -75, -108, 25], [66, 24, -21, 22, -17, -85], [32, 179, -29, -97, -50, -37], [104, 4, -93, 10, -56, 18]]",-50,0.0,[],0,-50,"[0.13, 0.02, 0.78, 0.07]","[0, 0, 0, 0, 0, 0]",2,4,"[[0, 0, 0, 0, 0, 0], [0, 0, 0, 0, 0, 0], [0, 0, 0, 0, 0, 0], [0, 0, 0, 0, 0, 0]]",[],,,,instruct3,0,75,0.10000000000000002
6,mouselab,1177.0,125489,8,False,mfqNgrWLCngjYvI,"[[-12, 85, 106, 92, -20, -73], [7, -60, -62, 29, -9, 16], [65, -31, 5, 113, -113, -100], [93, 111, 43, -124, -5, -39]]",-12,0.0,[],0,-12,"[0.94, 0.03, 0.01, 0.02]","[0, 0, 0, 0, 0, 0]",0,0,"[[0, 0, 0, 0, 0, 0], [0, 0, 0, 0, 0, 0], [0, 0, 0, 0, 0, 0], [0, 0, 0, 0, 0, 0]]",[],,,,instruct3,1,75,0.10000000000000002
6,mouselab,2016.0,129649,8,False,7AfAH9c0lNBVLIV,"[[-83, -94, 84, 49, 63, -113], [-38, 62, 44, -97, -40, 74], [72, 48, -105, 97, 19, -63], [68, -61, -21, 56, 24, -20]]",-61,0.0,[],0,-61,"[0.62, 0.01, 0.04, 0.33]","[0, 0, 0, 0, 0, 0]",3,1,"[[0, 0, 0, 0, 0, 0], [0, 0, 0, 0, 0, 0], [0, 0, 0, 0, 0, 0], [0, 0, 0, 0, 0, 0]]",[],,,,instruct3,2,75,0.10000000000000002
6,mouselab,1654.0,136936,8,False,YJJw7eiH44fE6qH,"[[134, -56, 47, -91, 36, -34], [-16, -58, -18, 83, 25, -12], [-50, -5, 151, -64, -117, 35], [-25, 70, -104, -123, 16, -106]]",-18,0.0,[],0,-18,"[0.14, 0.15, 0.68, 0.03]","[0, 0, 0, 0, 0, 0]",1,2,"[[0, 0, 0, 0, 0, 0], [0, 0, 0, 0, 0, 0], [0, 0, 0, 0, 0, 0], [0, 0, 0, 0, 0, 0]]",[],,,,test,0,75,0.10000000000000002
6,mouselab,1400.0,139464,8,False,eewoJML5byS5lDR,"[[10, 31, 72, 53, 203, -42], [-94, -24, -108, 45, 60, 116], [68, -24, -24, -43, -56, 41], [-66, -108, -108, 5, -136, 62]]",-108,0.0,[],0,-108,"[0.33, 0.64, 0.01, 0.02]","[0, 0, 0, 0, 0, 0]",1,2,"[[0, 0, 0, 0, 0, 0], [0, 0, 0, 0, 0, 0], [0, 0, 0, 0, 0, 0], [0, 0, 0, 0, 0, 0]]",[],,,,test,1,75,0.10000000000000002
6,mouselab,1224.0,141888,8,False,yROhrIV95LXvJ1R,"[[-55, 39, -93, 74, 65, -179], [-47, -38, 69, 46, -12, -26], [-55, -132, -10, 93, -70, -98], [52, -33, -3, -200, -11, 69]]",69,0.0,[],0,69,"[0.010000000000000009, 0.03, 0.03, 0.93]","[0, 0, 0, 0, 0, 0]",3,5,"[[0, 0, 0, 0, 0, 0], [0, 0, 0, 0, 0, 0], [0, 0, 0, 0, 0, 0], [0, 0, 0, 0, 0, 0]]",[],,,,test,2,75,0.10000000000000002
6,mouselab,1184.0,144282,8,False,Lm1nZBkmZNobSeb,"[[100, -201, 72, -34, -17, -50], [-57, 21, 8, 98, 105, -11], [-11, -3, 18, -75, 35, -59], [-55, 10, -57, 2, 108, 55]]",105,0.0,[],0,105,"[0.01, 0.97, 0.01, 0.01]","[0, 0, 0, 0, 0, 0]",1,4,"[[0, 0, 0, 0, 0, 0], [0, 0, 0, 0, 0, 0], [0, 0, 0, 0, 0, 0], [0, 0, 0, 0, 0, 0]]",[],,,,test,3,75,0.10000000000000002
6,mouselab,1422.0,146976,8,False,EBtdm5DVLUTiazA,"[[44, 57, 85, 66, -63, 28], [32, 37, 17, -160, -78, 47], [56, -23, -97, -76, -14, 61], [87, -20, 103, -44, -7, 73]]",-20,0.0,[],0,-20,"[0.05, 0.14, 0.16, 0.65]","[0, 0, 0, 0, 0, 0]",3,1,"[[0, 0, 0, 0, 0, 0], [0, 0, 0, 0, 0, 0], [0, 0, 0, 0, 0, 0], [0, 0, 0, 0, 0, 0]]",[],,,,test,4,75,0.10000000000000002
6,mouselab,1400.0,150081,8,False,CZFDePZP6wfd4qg,"[[-82, 153, -40, -70, 121, -58], [12, 78, -86, 65, 134, 64], [69, 222, -92, -39, -86, 53], [113, -33, -36, 72, -26, -59]]",-86,0.0,[],0,-86,"[0.3, 0.55, 0.02, 0.13]","[0, 0, 0, 0, 0, 0]",1,2,"[[0, 0, 0, 0, 0, 0], [0, 0, 0, 0, 0, 0], [0, 0, 0, 0, 0, 0], [0, 0, 0, 0, 0, 0]]",[],,,,test,5,75,0.10000000000000002
6,mouselab,1463.0,152696,8,False,uyFo6UBnSe6vCqF,"[[-72, 64, 61, -46, -20, -1], [-20, -121, 66, -119, 40, 35], [-61, 32, -62, -67, -72, 53], [61, 85, 8, 104, -41, -24]]",-119,0.0,[],0,-119,"[0.010000000000000009, 0.55, 0.01, 0.43]","[0, 0, 0, 0, 0, 0]",1,3,"[[0, 0, 0, 0, 0, 0], [0, 0, 0, 0, 0, 0], [0, 0, 0, 0, 0, 0], [0, 0, 0, 0, 0, 0]]",[],,,,test,6,75,0.10000000000000002
6,mouselab,1544.0,155544,8,False,xTmr39yD9iUXlqP,"[[47, -20, -65, 9, 65, -56], [30, -69, -75, -32, -70, 12], [-84, -103, 52, -68, 8, -141], [51, -45, 65, -13, -16, 93]]",-103,0.0,[],0,-103,"[0.01, 0.02, 0.96, 0.01]","[0, 0, 0, 0, 0, 0]",2,1,"[[0, 0, 0, 0, 0, 0], [0, 0, 0, 0, 0, 0], [0, 0, 0, 0, 0, 0], [0, 0, 0, 0, 0, 0]]",[],,,,test,7,75,0.10000000000000002
6,mouselab,1752.0,158409,8,False,PptganTKWvLZ9y6,"[[-35, 18, 9, 97, 17, -124], [-29, 46, 44, 186, 16, 15], [80, -188, -27, 161, -28, 15], [-23, -43, 69, 17, 84, 10]]",-29,0.0,[],0,-29,"[0.42, 0.45, 0.01, 0.12]","[0, 0, 0, 0, 0, 0]",1,0,"[[0, 0, 0, 0, 0, 0], [0, 0, 0, 0, 0, 0], [0, 0, 0, 0, 0, 0], [0, 0, 0, 0, 0, 0]]",[],,,,test,8,75,0.10000000000000002
6,mouselab,1520.0,161240,8,False,LTxbnjhX1iv5NAN,"[[-86, 65, 86, -59, -30, -39], [107, -138, 63, 80, -95, 99], [79, 150, 45, -61, -35, 51], [-3, -97, -4, 92, 52, 62]]",86,0.0,[],0,86,"[0.9, 0.07, 0.01, 0.02]","[0, 0, 0, 0, 0, 0]",0,2,"[[0, 0, 0, 0, 0, 0], [0, 0, 0, 0, 0, 0], [0, 0, 0, 0, 0, 0], [0, 0, 0, 0, 0, 0]]",[],,,,test,9,75,0.10000000000000002
6,mouselab,1248.0,164008,8,False,EERWIQNrLW4JRA6,"[[99, 14, 10, -242, -18, 23], [25, 165, 39, 1, -48, -16], [-27, -35, -36, 61, 71, -20], [-11, -126, -62, 80, -29, 172]]",14,0.0,[],0,14,"[0.86, 0.12, 0.01, 0.01]","[0, 0, 0, 0, 0, 0]",0,1,"[[0, 0, 0, 0, 0, 0], [0, 0, 0, 0, 0, 0], [0, 0, 0, 0, 0, 0], [0, 0, 0, 0, 0, 0]]",[],,,,test,10,75,0.10000000000000002
6,mouselab,1361.0,166457,8,False,k0An2Ii20UXu5LR,"[[37, 56, 12, 21, -175, 26], [4, -93, 169, -84, -58, -1], [-85, -19, 7, 45, 9, 29], [1, -36, -68, -101, -101, -4]]",-58,0.0,[],0,-58,"[0.21, 0.59, 0.01, 0.19]","[0, 0, 0, 0, 0, 0]",1,4,"[[0, 0, 0, 0, 0, 0], [0, 0, 0, 0, 0, 0], [0, 0, 0, 0, 0, 0], [0, 0, 0, 0, 0, 0]]",[],,,,test,11,75,0.10000000000000002
6,mouselab,1439.0,172080,8,False,j10Z4OmyIoqmliW,"[[18, -54, 54, 12, -17, 113], [-9, 46, -122, 66, 3, -8], [-43, 146, 46, 8, 97, -21], [48, -131, 41, -28, 16, 74]]",8,0.0,[],0,8,"[0.01, 0.93, 0.02, 0.04]","[0, 0, 0, 0, 0, 0]",2,3,"[[0, 0, 0, 0, 0, 0], [0, 0, 0, 0, 0, 0], [0, 0, 0, 0, 0, 0], [0, 0, 0, 0, 0, 0]]",[],,,,test,12,75,0.10000000000000002
6,mouselab,3479.0,176744,8,False,pQrPhYPNV21ehiw,"[[79, 90, -29, 57, 0, -48], [-55, -100, -49, -65, -30, 15], [-47, -86, -34, 7, -25, -5], [-56, -86, -57, -99, 54, 74]]",0,0.0,[],0,0,"[0.02, 0.02, 0.85, 0.11]","[0, 0, 0, 0, 0, 0]",0,4,"[[0, 0, 0, 0, 0, 0], [0, 0, 0, 0, 0, 0], [0, 0, 0, 0, 0, 0], [0, 0, 0, 0, 0, 0]]",[],,,,test,13,75,0.10000000000000002
6,mouselab,2568.0,180471,8,False,vNxd6eruRliKojq,"[[98, 2, -7, -133, 3, 55], [55, -78, -82, -65, -4, 73], [112, 32, 26, -119, 94, 27], [37, -42, -23, 148, 150, 12]]",-7,0.0,[],0,-7,"[0.64, 0.19, 0.15, 0.02]","[0, 0, 0, 0, 0, 0]",0,2,"[[0, 0, 0, 0, 0, 0], [0, 0, 0, 0, 0, 0], [0, 0, 0, 0, 0, 0], [0, 0, 0, 0, 0, 0]]",[],,,,test,14,75,0.10000000000000002
6,mouselab,1504.0,183384,8,False,GD9tVC59venbHdN,"[[81, -8, 95, 70, -21, -39], [43, 17, 192, 9, -10, 31], [-37, -77, 82, 49, -58, 64], [-85, 69, 47, 118, -7, 24]]",64,0.0,[],0,64,"[0.76, 0.03, 0.18, 0.03]","[0, 0, 0, 0, 0, 0]",2,5,"[[0, 0, 0, 0, 0, 0], [0, 0, 0, 0, 0, 0], [0, 0, 0, 0, 0, 0], [0, 0, 0, 0, 0, 0]]",[],,,,test,15,75,0.10000000000000002
6,mouselab,1872.0,186879,8,False,tXU6sLxtyjwBCUf,"[[-107, -137, -39, 84, -137, 142], [-144, 203, 38, 94, -66, 54], [-32, 137, -73, 138, -29, -47], [-5, 60, 145, 58, 69, -51]]",142,0.0,[],0,142,"[0.12, 0.72, 0.03, 0.13]","[0, 0, 0, 0, 0, 0]",0,5,"[[0, 0, 0, 0, 0, 0], [0, 0, 0, 0, 0, 0], [0, 0, 0, 0, 0, 0], [0, 0, 0, 0, 0, 0]]",[],,,,test,16,75,0.10000000000000002
6,mouselab,1905.0,189839,8,False,uS8jTc5bj986muw,"[[-83, 71, -37, 64, -1, 3], [-14, -51, -6, -11, 17, -9], [2, 87, -100, -57, -62, 103], [75, -81, -119, -119, 46, -5]]",87,0.0,[],0,87,"[0.009999999999999898, 0.05, 0.93, 0.01]","[0, 0, 0, 0, 0, 0]",2,1,"[[0, 0, 0, 0, 0, 0], [0, 0, 0, 0, 0, 0], [0, 0, 0, 0, 0, 0], [0, 0, 0, 0, 0, 0]]",[],,,,test,17,75,0.10000000000000002
6,mouselab,1281.0,192312,8,False,0LxhqpdnOxZwPx1,"[[24, 115, -107, 225, -128, 142], [41, -17, -121, -63, 33, 77], [41, -92, 3, -129, -45, 4], [179, 66, -79, 19, 58, -22]]",3,0.0,[],0,3,"[1.1102230246251565e-16, 0.08, 0.83, 0.09]","[0, 0, 0, 0, 0, 0]",2,2,"[[0, 0, 0, 0, 0, 0], [0, 0, 0, 0, 0, 0], [0, 0, 0, 0, 0, 0], [0, 0, 0, 0, 0, 0]]",[],,,,test,18,75,0.10000000000000002
6,mouselab,3711.0,197184,8,False,n8N5uqbD11kHBB5,"[[-68, -23, -1, 35, -160, 13], [-159, 14, -32, 70, -15, -177], [-62, 60, 26, 5, 64, 37], [-68, -45, -139, 34, 41, -35]]",41,0.0,[],0,41,"[0.23, 0.09, 0.01, 0.67]","[0, 0, 0, 0, 0, 0]",3,4,"[[0, 0, 0, 0, 0, 0], [0, 0, 0, 0, 0, 0], [0, 0, 0, 0, 0, 0], [0, 0, 0, 0, 0, 0]]",[],,,,test,19,75,0.10000000000000002
7,mouselab,22731.0,41581,0,True,dBNl5dzyNSRu5ql,"[[31, -118, 22, -56, -123, 88], [-31, 37, 39, 10, 24, 22], [-158, 22, -6, 27, -86, -51], [-47, -24, -25, -115, -32, 5]]",-158,20.0,[],0,-158,"[0.22, 0.04, 0.73, 0.01]","[0, 0, 0, 0, 0, 0]",2,0,"[[0, 0, 0, 0, 0, 0], [0, 0, 0, 0, 0, 0], [0, 0, 0, 0, 0, 0], [0, 0, 0, 0, 0, 0]]",[],,,,instruct1,0,75,0.10000000000000002
7,mouselab,9068.0,56124,0,True,nEeUZVFCAc1G4mc,"[[115, 98, -113, 170, -66, 96], [-22, -10, 102, -49, 146, 46], [-78, 49, 0, -76, 52, -110], [37, 69, 76, 38, -83, 48]]",-113,20.0,[],0,-113,"[0.27, 0.28, 0.03, 0.42]","[0, 0, 0, 0, 0, 0]",0,2,"[[0, 0, 0, 0, 0, 0], [0, 0, 0, 0, 0, 0], [0, 0, 0, 0, 0, 0], [0, 0, 0, 0, 0, 0]]",[],,,,instruct1,1,75,0.10000000000000002
7,mouselab,27981.0,86177,0,True,dFMyfhGUKf335Wq,"[[90, 62, 145, 68, -26, -111], [61, 34, 42, 76, -6, -2], [77, -83, -47, 73, 35, -78], [-79, 59, -13, 107, 117, 96]]",-111,20.0,[],0,-111,"[0.21, 0.18, 0.04, 0.57]","[0, 0, 0, 0, 0, 0]",0,5,"[[0, 0, 0, 0, 0, 0], [0, 0, 0, 0, 0, 0], [0, 0, 0, 0, 0, 0], [0, 0, 0, 0, 0, 0]]",[],,,,instruct1,2,75,0.10000000000000002
7,mouselab,440123.0,787133,0,True,FTaQr9Vc3N5BtN0,"[[182, 62, 39, 33, 75, -39], [2, 35, -4, -11, -128, 158], [12, 133, -72, 12, 58, 26], [64, 53, 15, 48, 79, -69]]",35,20.0,[],0,35,"[0.010000000000000009, 0.68, 0.13, 0.18]","[0, 0, 0, 0, 0, 0]",1,1,"[[0, 0, 0, 0, 0, 0], [0, 0, 0, 0, 0, 0], [0, 0, 0, 0, 0, 0], [0, 0, 0, 0, 0, 0]]",[],,,,instruct2,0,75,0.10000000000000002
7,mouselab,6055.0,794652,0,True,2H2K5rRCXUmUneF,"[[-5, 9, -43, -91, 22, -50], [5, -43, -53, -14, 80, 50], [-162, -65, -24, 26, 81, 48], [-84, -11, 14, -98, 153, 118]]",81,20.0,[],0,81,"[0.13, 0.01, 0.41, 0.45]","[0, 0, 0, 0, 0, 0]",2,4,"[[0, 0, 0, 0, 0, 0], [0, 0, 0, 0, 0, 0], [0, 0, 0, 0, 0, 0], [0, 0, 0, 0, 0, 0]]",[],,,dominating,instruct2,1,75,0.10000000000000002
7,mouselab,16848.0,813065,0,True,JAHFEh04PXDWEXh,"[[63, -91, -11, -55, 96, 3], [-65, 27, -60, 70, 50, 51], [-102, 115, -103, 25, 14, 48], [-98, -92, 60, -3, 1, -133]]",1,20.0,[],0,1,"[0.02, 0.02, 0.09, 0.87]","[0, 0, 0, 0, 0, 0]",3,4,"[[0, 0, 0, 0, 0, 0], [0, 0, 0, 0, 0, 0], [0, 0, 0, 0, 0, 0], [0, 0, 0, 0, 0, 0]]",[],,,,instruct2,2,75,0.10000000000000002
7,mouselab,126522.0,945923,0,True,ltrwK3KJtmSGlBw,"[[83, -66, -139, -75, -108, 25], [66, 24, -21, 22, -17, -85], [32, 179, -29, -97, -50, -37], [104, 4, -93, 10, -56, 18]]",32,20.0,"[112676, 116001, 117421, 118906, 119454, 122526, 123378, 125169]",0,32,"[0.13, 0.02, 0.78, 0.07]","[26, 0, -23, -76, -53, -29]",2,0,"[[0, 0, 0, 0, -108, 0], [66, 24, 0, 0, 0, 0], [32, 0, -29, -97, -50, -37], [0, 0, 0, 0, 0, 0]]","[17, 4, 14, 15, 16, 7, 6, 12]",,,,instruct3,0,75,0.10000000000000002
7,mouselab,35163.0,984142,0,True,mfqNgrWLCngjYvI,"[[-12, 85, 106, 92, -20, -73], [7, -60, -62, 29, -9, 16], [65, -31, 5, 113, -113, -100], [93, 111, 43, -124, -5, -39]]",106,20.0,"[6214, 7021, 7681, 8602, 9138, 9725, 10711, 11255, 11729, 12413, 12857, 13445, 15036, 17352, 18126, 21497, 22228, 22942, 32622]",0,106,"[0.94, 0.03, 0.01, 0.02]","[-9, 80, 99, 86, -19, -69]",0,2,"[[-12, 85, 106, 92, -20, -73], [7, -60, -62, 29, -9, 0], [65, -31, 5, 113, 0, 0], [93, 111, 43, -124, 0, 0]]","[0, 1, 2, 3, 4, 5, 13, 14, 15, 9, 8, 21, 20, 7, 19, 12, 18, 6, 10]",,,,instruct3,1,75,0.10000000000000002
7,mouselab,23467.0,1013863,0,True,7AfAH9c0lNBVLIV,"[[-83, -94, 84, 49, 63, -113], [-38, 62, 44, -97, -40, 74], [72, 48, -105, 97, 19, -63], [68, -61, -21, 56, 24, -20]]",-21,20.0,"[5511, 6103, 6739, 7425, 8074, 8726]",0,-21,"[0.62, 0.01, 0.04, 0.33]","[-51, -58, 52, 30, 39, -70]",3,2,"[[-83, -94, 84, 49, 63, -113], [0, 0, 0, 0, 0, 0], [0, 0, 0, 0, 0, 0], [0, 0, 0, 0, 0, 0]]","[0, 1, 2, 3, 4, 5]",,,,instruct3,2,75,0.10000000000000002
7,mouselab,39162.0,1067231,0,True,YJJw7eiH44fE6qH,"[[134, -56, 47, -91, 36, -34], [-16, -58, -18, 83, 25, -12], [-50, -5, 151, -64, -117, 35], [-25, 70, -104, -123, 16, -106]]",-18,20.0,"[20427, 23173, 26998, 28469, 29842, 30556, 32739, 33673, 35550]",0,-18,"[0.14, 0.15, 0.68, 0.03]","[-34, -12, 100, -44, -80, 22]",1,2,"[[0, 0, 0, 0, 0, 0], [0, -58, -18, 0, 0, -12], [-50, -5, 151, -64, -117, 35], [0, 0, 0, 0, 0, 0]]","[12, 13, 15, 14, 16, 17, 8, 11, 7]",,,,test,0,75,0.10000000000000002
7,mouselab,24523.0,1094382,0,True,eewoJML5byS5lDR,"[[10, 31, 72, 53, 203, -42], [-94, -24, -108, 45, 60, 116], [68, -24, -24, -43, -56, 41], [-66, -108, -108, 5, -136, 62]]",60,20.0,"[10023, 11070, 11823, 12525, 14713, 15836, 19239, 20782, 21567]",0,60,"[0.33, 0.64, 0.01, 0.02]","[-60, -15, -69, 46, 105, 60]",1,4,"[[0, 0, 0, 53, 203, -42], [-94, -24, -108, 45, 60, 116], [0, 0, 0, 0, 0, 0], [0, 0, 0, 0, 0, 0]]","[6, 7, 8, 9, 10, 11, 5, 4, 3]",,,,test,1,75,0.10000000000000002
7,mouselab,21734.0,1117788,0,True,yROhrIV95LXvJ1R,"[[-55, 39, -93, 74, 65, -179], [-47, -38, 69, 46, -12, -26], [-55, -132, -10, 93, -70, -98], [52, -33, -3, -200, -11, 69]]",69,20.0,"[3049, 4106, 4819, 5312, 5753, 7299]",0,69,"[0.010000000000000009, 0.03, 0.03, 0.93]","[48, -31, -3, -186, -10, 64]",3,5,"[[0, 0, 0, 0, 0, 0], [0, 0, 0, 0, 0, 0], [0, 0, 0, 0, 0, 0], [52, -33, -3, -200, -11, 69]]","[18, 19, 20, 21, 22, 23]",,,,test,2,75,0.10000000000000002
7,mouselab,20836.0,1140538,0,True,Lm1nZBkmZNobSeb,"[[100, -201, 72, -34, -17, -50], [-57, 21, 8, 98, 105, -11], [-11, -3, 18, -75, 35, -59], [-55, 10, -57, 2, 108, 55]]",105,20.0,"[2674, 3411, 4075, 4662, 5244, 5836]",0,105,"[0.01, 0.97, 0.01, 0.01]","[-55, 20, 8, 95, 102, -11]",1,4,"[[0, 0, 0, 0, 0, 0], [-57, 21, 8, 98, 105, -11], [0, 0, 0, 0, 0, 0], [0, 0, 0, 0, 0, 0]]","[6, 7, 8, 9, 10, 11]",,,,test,3,75,0.10000000000000002
7,mouselab,20295.0,1162765,0,True,EBtdm5DVLUTiazA,"[[44, 57, 85, 66, -63, 28], [32, 37, 17, -160, -78, 47], [56, -23, -97, -76, -14, 61], [87, -20, 103, -44, -7, 73]]",32,20.0,"[2586, 3689, 4292, 4816, 5348, 5878, 10842, 11773, 16218]",0,32,"[0.05, 0.14, 0.16, 0.65]","[66, -13, 51, -29, -5, 57]",1,0,"[[0, 0, 0, 0, 0, 0], [0, 0, 0, 0, 0, 0], [56, 0, -97, 0, 0, 61], [87, -20, 103, -44, -7, 73]]","[18, 19, 20, 21, 22, 23, 14, 12, 17]",,,,test,4,75,0.10000000000000002
7,mouselab,49985.0,1214773,0,True,CZFDePZP6wfd4qg,"[[-82, 153, -40, -70, 121, -58], [12, 78, -86, 65, 134, 64], [69, 222, -92, -39, -86, 53], [113, -33, -36, 72, -26, -59]]",134,20.0,"[2866, 3662, 4293, 4821, 5373, 6004, 7110, 7809, 8735, 9373, 10392]",0,134,"[0.3, 0.55, 0.02, 0.13]","[-18, 89, -47, 15, 110, 18]",1,4,"[[-82, 153, 0, -70, 121, -58], [12, 78, -86, 65, 134, 64], [0, 0, 0, 0, 0, 0], [0, 0, 0, 0, 0, 0]]","[6, 7, 8, 9, 10, 11, 5, 4, 0, 1, 3]",,,,test,5,75,0.10000000000000002
7,mouselab,25448.0,1242042,0,True,uyFo6UBnSe6vCqF,"[[-72, 64, 61, -46, -20, -1], [-20, -121, 66, -119, 40, 35], [-61, 32, -62, -67, -72, 53], [61, 85, 8, 104, -41, -24]]",66,20.0,"[11242, 12073, 12795, 13375, 14071, 14678, 17559, 18446, 19568]",0,66,"[0.010000000000000009, 0.55, 0.01, 0.43]","[-11, -67, 40, -65, 4, 9]",1,2,"[[0, 0, 0, 0, 0, 0], [-20, -121, 66, -119, 40, 35], [0, 0, 0, 0, 0, 0], [0, 0, 8, 0, -41, -24]]","[6, 7, 8, 9, 10, 11, 20, 22, 23]",,,,test,6,75,0.10000000000000002
7,mouselab,23624.0,1267083,0,True,xTmr39yD9iUXlqP,"[[47, -20, -65, 9, 65, -56], [30, -69, -75, -32, -70, 12], [-84, -103, 52, -68, 8, -141], [51, -45, 65, -13, -16, 93]]",52,20.0,"[2393, 2950, 3454, 3929, 4419, 4910]",0,52,"[0.01, 0.02, 0.96, 0.01]","[-81, -99, 50, -65, 8, -135]",2,2,"[[0, 0, 0, 0, 0, 0], [0, 0, 0, 0, 0, 0], [-84, -103, 52, -68, 8, -141], [0, 0, 0, 0, 0, 0]]","[12, 13, 14, 15, 16, 17]",,,,test,7,75,0.10000000000000002
7,mouselab,22029.0,1290687,0,True,PptganTKWvLZ9y6,"[[-35, 18, 9, 97, 17, -124], [-29, 46, 44, 186, 16, 15], [80, -188, -27, 161, -28, 15], [-23, -43, 69, 17, 84, 10]]",17,20.0,"[2339, 4171, 4705, 5180, 5714, 7747, 8439, 9002, 9807, 10577, 11213, 11848]",0,17,"[0.42, 0.45, 0.01, 0.12]","[-28, 28, 24, 124, 14, -45]",3,3,"[[-35, 18, 9, 97, 17, -124], [-29, 46, 44, 186, 16, 15], [0, 0, 0, 0, 0, 0], [0, 0, 0, 0, 0, 0]]","[0, 6, 7, 8, 9, 3, 2, 1, 10, 11, 5, 4]",,,,test,8,75,0.10000000000000002
7,mouselab,20539.0,1313835,0,True,LTxbnjhX1iv5NAN,"[[-86, 65, 86, -59, -30, -39], [107, -138, 63, 80, -95, 99], [79, 150, 45, -61, -35, 51], [-3, -97, -4, 92, 52, 62]]",86,20.0,"[2303, 3159, 3891, 4496, 5315, 6111]",0,86,"[0.9, 0.07, 0.01, 0.02]","[-77, 59, 77, -53, -27, -35]",0,2,"[[-86, 65, 86, -59, -30, -39], [0, 0, 0, 0, 0, 0], [0, 0, 0, 0, 0, 0], [0, 0, 0, 0, 0, 0]]","[0, 1, 2, 3, 4, 5]",,,,test,9,75,0.10000000000000002
7,mouselab,22969.0,1339750,0,True,EERWIQNrLW4JRA6,"[[99, 14, 10, -242, -18, 23], [25, 165, 39, 1, -48, -16], [-27, -35, -36, 61, 71, -20], [-11, -126, -62, 80, -29, 172]]",99,20.0,"[2800, 3406, 5252, 5980, 6471, 6907, 7662, 8252, 9367]",0,99,"[0.86, 0.12, 0.01, 0.01]","[88, 32, 13, -208, -15, 20]",0,0,"[[99, 14, 10, -242, -18, 23], [25, 165, 39, 0, 0, 0], [0, 0, 0, 0, 0, 0], [0, 0, 0, 0, 0, 0]]","[0, 1, 2, 3, 4, 5, 6, 7, 8]",,,,test,10,75,0.10000000000000002
7,mouselab,20605.0,1361959,0,True,k0An2Ii20UXu5LR,"[[37, 56, 12, 21, -175, 26], [4, -93, 169, -84, -58, -1], [-85, -19, 7, 45, 9, 29], [1, -36, -68, -101, -101, -4]]",169,20.0,"[2380, 3098, 3702, 4307, 5060, 5837, 8986, 16148]",0,169,"[0.21, 0.59, 0.01, 0.19]","[10, -55, 102, -50, -34, -1]",1,2,"[[37, 0, 12, 0, 0, 0], [4, -93, 169, -84, -58, -1], [0, 0, 0, 0, 0, 0], [0, 0, 0, 0, 0, 0]]","[6, 7, 8, 9, 10, 11, 2, 0]",,,,test,11,75,0.10000000000000002
7,mouselab,20476.0,1389262,0,True,j10Z4OmyIoqmliW,"[[18, -54, 54, 12, -17, 113], [-9, 46, -122, 66, 3, -8], [-43, 146, 46, 8, 97, -21], [48, -131, 41, -28, 16, 74]]",66,20.0,"[4137, 4896, 5711, 6446, 7150, 7799]",0,66,"[0.01, 0.93, 0.02, 0.04]","[-8, 43, -113, 61, 3, -7]",1,3,"[[0, 0, 0, 0, 0, 0], [-9, 46, -122, 66, 3, -8], [0, 0, 0, 0, 0, 0], [0, 0, 0, 0, 0, 0]]","[6, 7, 8, 9, 10, 11]",,,,test,12,75,0.10000000000000002
7,mouselab,30529.0,1421201,0,True,pQrPhYPNV21ehiw,"[[79, 90, -29, 57, 0, -48], [-55, -100, -49, -65, -30, 15], [-47, -86, -34, 7, -25, -5], [-56, -86, -57, -99, 54, 74]]",15,20.0,"[2512, 3100, 3636, 4288, 4907, 5521, 6708, 7389]",0,15,"[0.02, 0.02, 0.85, 0.11]","[-40, -73, -29, -5, -15, -4]",1,5,"[[0, 0, 0, 0, 0, 0], [0, 0, 0, 0, 0, 0], [-47, -86, -34, 7, -25, -5], [0, 0, 0, -99, 54, 0]]","[12, 13, 14, 15, 16, 17, 22, 21]",,,,test,13,75,0.10000000000000002
7,mouselab,20887.0,1443279,0,True,vNxd6eruRliKojq,"[[98, 2, -7, -133, 3, 55], [55, -78, -82, -65, -4, 73], [112, 32, 26, -119, 94, 27], [37, -42, -23, 148, 150, 12]]",98,20.0,"[2422, 3935, 4811, 5403, 5971, 6476, 8249, 11917, 12846, 13652]",0,98,"[0.64, 0.19, 0.15, 0.02]","[73, -14, -4, -85, 1, 49]",0,0,"[[98, 2, -7, -133, 3, 55], [55, -78, 0, 0, -4, 73], [0, 0, 0, 0, 0, 0], [0, 0, 0, 0, 0, 0]]","[0, 1, 2, 3, 4, 5, 6, 7, 10, 11]",,,,test,14,75,0.10000000000000002
7,mouselab,102382.0,1546913,0,True,GD9tVC59venbHdN,"[[81, -8, 95, 70, -21, -39], [43, 17, 192, 9, -10, 31], [-37, -77, 82, 49, -58, 64], [-85, 69, 47, 118, -7, 24]]",82,20.0,"[1830, 2622, 3995, 4577, 5141, 5694]",0,82,"[0.76, 0.03, 0.18, 0.03]","[62, -6, 72, 53, -16, -30]",2,2,"[[81, -8, 95, 70, -21, -39], [0, 0, 0, 0, 0, 0], [0, 0, 0, 0, 0, 0], [0, 0, 0, 0, 0, 0]]","[0, 1, 2, 3, 4, 5]",,,,test,15,75,0.10000000000000002
7,mouselab,20503.0,1569386,0,True,tXU6sLxtyjwBCUf,"[[-107, -137, -39, 84, -137, 142], [-144, 203, 38, 94, -66, 54], [-32, 137, -73, 138, -29, -47], [-5, 60, 145, 58, 69, -51]]",203,20.0,"[4281, 5334, 5954, 6383, 6916, 7727]",0,203,"[0.12, 0.72, 0.03, 0.13]","[-104, 146, 27, 68, -48, 39]",1,1,"[[0, 0, 0, 0, 0, 0], [-144, 203, 38, 94, -66, 54], [0, 0, 0, 0, 0, 0], [0, 0, 0, 0, 0, 0]]","[6, 7, 8, 9, 10, 11]",,,,test,16,75,0.10000000000000002
7,mouselab,20545.0,1591088,0,True,uS8jTc5bj986muw,"[[-83, 71, -37, 64, -1, 3], [-14, -51, -6, -11, 17, -9], [2, 87, -100, -57, -62, 103], [75, -81, -119, -119, 46, -5]]",103,20.0,"[3073, 3681, 4187, 4783, 5303, 5846]",0,103,"[0.009999999999999898, 0.05, 0.93, 0.01]","[2, 81, -93, -53, -58, 96]",2,5,"[[0, 0, 0, 0, 0, 0], [0, 0, 0, 0, 0, 0], [2, 87, -100, -57, -62, 103], [0, 0, 0, 0, 0, 0]]","[12, 13, 14, 15, 16, 17]",,,,test,17,75,0.10000000000000002
7,mouselab,25006.0,1617364,0,True,0LxhqpdnOxZwPx1,"[[24, 115, -107, 225, -128, 142], [41, -17, -121, -63, 33, 77], [41, -92, 3, -129, -45, 4], [179, 66, -79, 19, 58, -22]]",41,20.0,"[2156, 2957, 3458, 3966, 4418, 4900]",0,41,"[1.1102230246251565e-16, 0.08, 0.83, 0.09]","[34, -76, 2, -107, -37, 3]",2,0,"[[0, 0, 0, 0, 0, 0], [0, 0, 0, 0, 0, 0], [41, -92, 3, -129, -45, 4], [0, 0, 0, 0, 0, 0]]","[12, 13, 14, 15, 16, 17]",,,,test,18,75,0.10000000000000002
7,mouselab,20586.0,1639164,0,True,n8N5uqbD11kHBB5,"[[-68, -23, -1, 35, -160, 13], [-159, 14, -32, 70, -15, -177], [-62, 60, 26, 5, 64, 37], [-68, -45, -139, 34, 41, -35]]",34,20.0,"[3546, 4233, 4732, 5189, 5683, 6149]",0,34,"[0.23, 0.09, 0.01, 0.67]","[-16, -5, 0, 8, -37, 3]",3,3,"[[-68, -23, -1, 35, -160, 13], [0, 0, 0, 0, 0, 0], [0, 0, 0, 0, 0, 0], [0, 0, 0, 0, 0, 0]]","[0, 1, 2, 3, 4, 5]",,,,test,19,75,0.10000000000000002
