pid,rt,time_elapsed,trial_type,display_ev,e_vs,probabilities,cost,click_times,min_trial_secs,problem_id,click_cost,revealed_points,payoff_index,payoff_value,net_payoff,choice_index,payoff_matrix,clicks,flag,answers,correct,block,trial_index,sigma,alpha
4,30119.0,39563,mouselab,False,"[0, 0, 0, 0, 0, 0]","[0.010000000000000009, 0.72, 0.12, 0.15]",4,[],0.0,ug6cLKSvnLTWxOA,0,"[[0, 0, 0, 0, 0, 0], [0, 0, 0, 0, 0, 0], [0, 0, 0, 0, 0, 0], [0, 0, 0, 0, 0, 0]]",3,137,137,0,"[[17, 177, 19, 74, 73, -20], [102, 26, 75, -67, -18, -105], [-12, -27, 39, -136, 124, -20], [137, 85, -76, -103, 43, 22]]",[],,,,instruct1,0,75,0.31622776601683805
4,11968.0,56131,mouselab,False,"[0, 0, 0, 0, 0, 0]","[0.01, 0.55, 0.38, 0.06]",4,[],0.0,I6ec6hcselxkUo2,0,"[[0, 0, 0, 0, 0, 0], [0, 0, 0, 0, 0, 0], [0, 0, 0, 0, 0, 0], [0, 0, 0, 0, 0, 0]]",2,10,10,1,"[[39, 19, -100, 124, 103, 74], [-118, 109, 84, 10, 20, 23], [-23, 10, -58, 2, 44, 176], [54, -12, -112, 123, -3, -141]]",[],,,,instruct1,1,75,0.31622776601683805
4,19912.0,78931,mouselab,False,"[0, 0, 0, 0, 0, 0]","[0.21, 0.18, 0.04, 0.57]",4,[],0.0,qOTp6WiWCwD2uUQ,0,"[[0, 0, 0, 0, 0, 0], [0, 0, 0, 0, 0, 0], [0, 0, 0, 0, 0, 0], [0, 0, 0, 0, 0, 0]]",3,-16,-16,5,"[[94, -20, -68, -94, 124, 158], [-14, -35, -77, -25, -65, -164], [-19, 79, -50, 72, 52, -77], [-8, -81, 111, 18, 65, -16]]",[],,,,instruct1,2,75,0.31622776601683805
4,27088.0,178355,mouselab,False,"[0, 0, 0, 0, 0, 0]","[0.49, 0.33, 0.02, 0.16]",4,[],0.0,sydK4yEJpghb956,0,"[[0, 0, 0, 0, 0, 0], [0, 0, 0, 0, 0, 0], [0, 0, 0, 0, 0, 0], [0, 0, 0, 0, 0, 0]]",0,36,36,1,"[[93, 36, 16, -28, -27, -110], [-89, 62, -33, 57, -138, 98], [-69, 20, -51, 29, -36, 51], [-24, -104, 23, -179, 36, 28]]",[],,,,instruct2,0,75,0.31622776601683805
4,9415.0,193740,mouselab,False,"[0, 0, 0, 0, 0, 0]","[0.73, 0.07, 0.03, 0.17]",4,[],0.0,PxAQf10GF4AeHJo,0,"[[0, 0, 0, 0, 0, 0], [0, 0, 0, 0, 0, 0], [0, 0, 0, 0, 0, 0], [0, 0, 0, 0, 0, 0]]",2,168,168,5,"[[-127, -18, 94, 27, 29, 103], [-93, 64, 190, 7, 35, 209], [38, 147, 47, 131, -72, 168], [-58, 3, 17, 15, 72, 84]]",[],dominating,,,instruct2,1,75,0.31622776601683805
4,9176.0,204395,mouselab,False,"[0, 0, 0, 0, 0, 0]","[0.46, 0.33, 0.05, 0.16]",4,[],0.0,3R2dgTJvGgi2aDr,0,"[[0, 0, 0, 0, 0, 0], [0, 0, 0, 0, 0, 0], [0, 0, 0, 0, 0, 0], [0, 0, 0, 0, 0, 0]]",0,259,259,2,"[[13, 46, 259, -75, 39, 30], [15, -44, -10, 89, 76, 22], [131, 34, 128, -15, 35, 83], [13, -56, -114, -80, -31, -61]]",[],,,,instruct2,2,75,0.31622776601683805
4,18464.0,228483,mouselab,False,"[62, -42, 60, -78, -24, 19]","[0.64, 0.33, 0.02, 0.01]",4,"[10167, 10655, 11072, 11335, 11559, 11919, 12575, 12992, 13288, 13552, 13983, 14296, 14632, 14880, 15072, 15600, 15815, 16047, 16263, 16488, 16696, 16920, 17120, 17591]",0.0,sI6tH6AHG2OwKDr,96,"[[41, 22, 90, -40, -15, 44], [104, -174, 6, -165, -44, -29], [58, 118, -11, 55, 57, 70], [59, -70, 14, 102, -60, -68]]",0,22,-74,1,"[[41, 22, 90, -40, -15, 44], [104, -174, 6, -165, -44, -29], [58, 118, -11, 55, 57, 70], [59, -70, 14, 102, -60, -68]]","[6, 7, 0, 12, 13, 18, 20, 14, 8, 2, 1, 3, 4, 10, 9, 16, 15, 21, 22, 23, 17, 11, 5, 19]",,,,instruct3,0,75,0.31622776601683805
4,10096.0,240619,mouselab,False,"[0, -22, -9, 62, -27, 42]","[0.44, 0.06, 0.02, 0.48]",4,"[7149, 7440, 7712, 8200, 8432, 8680, 9096, 9400, 9600, 9808]",0.0,FY7UVEq2c9ayqON,40,"[[0, -56, -7, 130, -59, 90], [0, 37, -91, 75, -10, 41], [0, 0, 0, 0, 0, 0], [0, 0, 0, 0, 0, 0]]",3,135,95,3,"[[-66, -56, -7, 130, -59, 90], [92, 37, -91, 75, -10, 41], [24, -37, 16, 71, 116, -108], [4, -19, 9, 135, -15, 66]]","[1, 7, 9, 3, 2, 8, 10, 11, 5, 4]",,,,instruct3,1,75,0.31622776601683805
4,9088.0,251843,mouselab,False,"[-35, 40, 9, -11, 13, -43]","[0.4200000000000001, 0.03, 0.18, 0.37]",4,"[2344, 2608, 3128, 3448, 3776, 4128, 6840, 7056, 7352, 7616, 7888, 8152]",0.0,vIc698BPf7klCYk,48,"[[-83, 61, -80, -38, 35, -120], [-16, 0, 0, 0, 0, 0], [0, 80, 0, 27, -11, 42], [0, 0, 114, 0, 0, 0]]",0,61,13,1,"[[-83, 61, -80, -38, 35, -120], [-16, -48, 58, -12, 63, -5], [-102, 80, 44, 27, -11, 42], [45, 65, 114, 60, 51, 60]]","[6, 13, 20, 15, 16, 17, 0, 1, 2, 3, 4, 5]",,,,instruct3,2,75,0.31622776601683805
4,4711.0,333059,mouselab,False,"[-3, -23, -45, 75, 99, -5]","[0.029999999999999992, 0.01, 0.77, 0.19]",4,"[2327, 2783, 3207, 3471, 3719, 3927]",0.0,Z6igLUgOZ1o22OJ,24,"[[0, 0, 0, 0, 0, 0], [0, 0, 0, 0, 0, 0], [-4, -30, -59, 98, 129, -6], [0, 0, 0, 0, 0, 0]]",2,129,105,4,"[[-40, -36, -135, 25, -23, -26], [75, -26, -49, -47, -134, -139], [-4, -30, -59, 98, 129, -6], [72, -44, 39, 7, -30, 7]]","[12, 13, 14, 15, 16, 17]",,,,test,0,75,0.31622776601683805
4,5657.0,339907,mouselab,False,"[45, 46, 45, 50, 10, -9]","[0.06, 0.26, 0.14, 0.54]",4,"[2496, 2760, 3015, 3351, 3728, 3968]",0.0,3uXiz4V3sUrSmY9,24,"[[0, 0, 0, 0, 0, 0], [0, 0, 0, 0, 0, 0], [0, 0, 0, 0, 0, 0], [84, 85, 84, 93, 18, -17]]",3,93,69,3,"[[-101, -31, 34, -10, 30, -23], [-98, -42, -2, 84, 60, -107], [65, -46, -22, -61, -87, 97], [84, 85, 84, 93, 18, -17]]","[18, 19, 20, 21, 22, 23]",,,,test,1,75,0.31622776601683805
4,5560.0,346779,mouselab,False,"[26, 43, 67, 26, -7, -39]","[0.06, 0.07, 0.81, 0.06]",4,"[1568, 1784, 2032, 2304, 3408, 3936]",0.0,si1lNmExwYp0qHd,24,"[[0, 0, 0, 0, 0, 0], [0, 0, 0, 0, 0, 0], [32, 53, 83, 32, -9, -48], [0, 0, 0, 0, 0, 0]]",3,109,85,2,"[[-69, 74, -146, 18, -66, -39], [-59, 123, 55, -117, -17, -38], [32, 53, 83, 32, -9, -48], [-24, -104, 109, 21, 25, 52]]","[12, 13, 14, 15, 16, 17]",,,,test,2,75,0.31622776601683805
4,10896.0,359227,mouselab,False,"[-14, 1, -24, -29, -43, -79]","[0.02000000000000001, 0.04, 0.64, 0.3]",4,"[3663, 4256, 4512, 4887, 5272, 5560]",0.0,klD1PHboiI6GI83,24,"[[0, 0, 0, 0, 0, 0], [0, 0, 0, 0, 0, 0], [-22, 1, -38, -46, -67, -123], [0, 0, 0, 0, 0, 0]]",1,70,46,3,"[[-56, 69, -45, 13, -11, -81], [158, 111, -15, 70, 133, 4], [-22, 1, -38, -46, -67, -123], [-17, 31, -20, -11, -19, -48]]","[12, 13, 14, 15, 16, 17]",,,,test,3,75,0.31622776601683805
4,5184.0,370331,mouselab,False,"[-26, 9, 12, -42, 23, -16]","[0.5, 0.19, 0.15, 0.16]",4,"[2168, 2392, 2648, 2912, 3184, 3431]",0.0,mlhb2P64mtEuQDH,24,"[[-53, 18, 23, -85, 45, -33], [0, 0, 0, 0, 0, 0], [0, 0, 0, 0, 0, 0], [0, 0, 0, 0, 0, 0]]",2,21,-3,4,"[[-53, 18, 23, -85, 45, -33], [-49, 130, -42, -100, 156, -80], [-29, 8, -51, -42, 21, 17], [4, 19, 36, -77, -8, 23]]","[0, 1, 2, 3, 4, 5]",,,,test,4,75,0.31622776601683805
4,7433.0,381699,mouselab,False,"[-14, -21, -17, -18, 30, 46]","[0.06, 0.48, 0.03, 0.43]",4,"[1752, 1976, 2280, 2576, 2848, 3088, 4263, 5456, 6048, 6424]",0.0,Q8ZMcp5SHNKniCj,40,"[[0, 0, 0, 0, 0, 0], [-30, 23, 34, -38, 29, 130], [0, 0, 0, 0, 0, 0], [0, -75, -77, 0, 38, -38]]",1,130,90,5,"[[-64, -14, -37, -37, -139, 10], [-30, 23, 34, -38, 29, 130], [50, -10, -34, 126, -54, 94], [-47, -75, -77, -33, 38, -38]]","[6, 7, 8, 9, 10, 11, 23, 20, 19, 22]",,,,test,5,75,0.31622776601683805
4,4393.0,387299,mouselab,False,"[31, -21, -48, -27, -83, 27]","[0.51, 0.17, 0.01, 0.31]",4,"[2072, 2312, 2616, 2881, 3137, 3393]",0.0,55wGWrG0AsulSFG,24,"[[61, -42, -94, -52, -163, 53], [0, 0, 0, 0, 0, 0], [0, 0, 0, 0, 0, 0], [0, 0, 0, 0, 0, 0]]",3,101,77,0,"[[61, -42, -94, -52, -163, 53], [85, -65, -84, 88, 40, 87], [53, -6, 64, -32, 83, -117], [101, 67, 39, -108, -29, 8]]","[0, 1, 2, 3, 4, 5]",,,,test,6,75,0.31622776601683805
4,3896.0,392459,mouselab,False,"[4, 16, 71, 110, 6, -53]","[0.03, 0.03, 0.2, 0.74]",4,"[2055, 2287, 2575, 2831, 3119, 3351]",0.0,Gq2ftjqDBmr2chN,24,"[[0, 0, 0, 0, 0, 0], [0, 0, 0, 0, 0, 0], [0, 0, 0, 0, 0, 0], [5, 21, 96, 148, 8, -72]]",2,-8,-32,3,"[[26, 3, -7, -50, 62, 37], [170, -11, -37, 11, -44, 59], [-158, -3, -108, -8, -23, -72], [5, 21, 96, 148, 8, -72]]","[18, 19, 20, 21, 22, 23]",,,,test,7,75,0.31622776601683805
4,3832.0,397555,mouselab,False,"[-37, 47, -38, -60, 71, 57]","[0.06000000000000001, 0.04, 0.88, 0.02]",4,"[1272, 1520, 1776, 2096, 2353, 2600]",0.0,PCWdMJAPeV3vIAW,24,"[[0, 0, 0, 0, 0, 0], [0, 0, 0, 0, 0, 0], [-42, 53, -43, -68, 81, 65], [0, 0, 0, 0, 0, 0]]",2,81,57,4,"[[-131, 85, 56, -12, -48, 108], [77, -51, -7, -137, 64, 40], [-42, 53, -43, -68, 81, 65], [67, -79, -44, 141, 59, -110]]","[12, 13, 14, 15, 16, 17]",,,,test,8,75,0.31622776601683805
4,3536.0,402243,mouselab,False,"[28, -11, 41, -106, 8, -62]","[0.06, 0.01, 0.6, 0.33]",4,"[1215, 1464, 1727, 2175, 2464, 2727]",0.0,q8OiXnEuGsljtb2,24,"[[0, 0, 0, 0, 0, 0], [0, 0, 0, 0, 0, 0], [46, -19, 69, -177, 14, -104], [0, 0, 0, 0, 0, 0]]",2,69,45,2,"[[15, 90, 55, -167, -78, -16], [-46, -81, 39, 134, 26, -7], [46, -19, 69, -177, 14, -104], [-32, -73, -15, 28, 203, 27]]","[12, 13, 14, 15, 16, 17]",,,,test,9,75,0.31622776601683805
4,4223.0,407371,mouselab,False,"[28, -37, -13, -6, -17, -24]","[0.38, 0.05, 0.02, 0.55]",4,"[2039, 2255, 2503, 2871, 3232, 3439]",0.0,nQ4KJRm5qzDmfGs,24,"[[0, 0, 0, 0, 0, 0], [0, 0, 0, 0, 0, 0], [0, 0, 0, 0, 0, 0], [50, -67, -24, -11, -31, -43]]",3,50,26,0,"[[13, 44, -5, 28, -6, -76], [-40, 25, 9, -196, 123, -17], [-133, 45, -113, -55, 31, -16], [50, -67, -24, -11, -31, -43]]","[18, 19, 20, 21, 22, 23]",,,,test,10,75,0.31622776601683805
4,4424.0,413091,mouselab,False,"[-39, 15, 49, 12, 5, 5]","[0.02, 0.47, 0.14, 0.37]",4,"[2599, 2823, 3119, 3423, 3736, 3967]",0.0,02RpShoPR0hc5AX,24,"[[0, 0, 0, 0, 0, 0], [-84, 32, 105, 26, 11, 10], [0, 0, 0, 0, 0, 0], [0, 0, 0, 0, 0, 0]]",2,-55,-79,2,"[[-69, 20, -39, -17, -12, -39], [-84, 32, 105, 26, 11, 10], [55, 72, -55, -6, -46, 98], [-48, 65, 13, 95, 7, -61]]","[6, 7, 8, 9, 10, 11]",,,,test,11,75,0.31622776601683805
4,3560.0,418019,mouselab,False,"[-77, 40, -119, 42, -20, 4]","[0.04, 0.29, 0.65, 0.02]",4,"[1247, 1511, 1775, 2040, 2319, 2599]",0.0,lIbaNiqegro6KIA,24,"[[0, 0, 0, 0, 0, 0], [0, 0, 0, 0, 0, 0], [-119, 61, -183, 64, -31, 6], [0, 0, 0, 0, 0, 0]]",1,7,-17,3,"[[140, 81, 49, 185, 81, -77], [52, 14, -168, 7, -3, 51], [-119, 61, -183, 64, -31, 6], [49, -53, -44, -94, 23, -90]]","[12, 13, 14, 15, 16, 17]",,,,test,12,75,0.31622776601683805
4,6120.0,427051,mouselab,False,"[-44, -46, 11, 9, -14, -37]","[0.37, 0.44, 0.17, 0.02]",4,"[2967, 3215, 4015, 4263, 4543, 5071]",0.0,IBOZgXFSkyvyiUf,24,"[[0, 0, 0, 0, 0, 0], [-99, -104, 26, 20, -32, -84], [0, 0, 0, 0, 0, 0], [0, 0, 0, 0, 0, 0]]",1,26,2,2,"[[15, -30, 29, -47, -45, -53], [-99, -104, 26, 20, -32, -84], [159, -28, 100, -106, 63, 32], [61, -31, -171, -16, -79, -55]]","[6, 7, 9, 10, 11, 8]",,,,test,13,75,0.31622776601683805
4,4024.0,432163,mouselab,False,"[-39, -33, 27, 45, -12, 17]","[0.01999999999999999, 0.01, 0.47, 0.5]",4,"[2088, 2312, 2559, 2831, 3136, 3415]",0.0,VHZfp8VcgwqWdru,24,"[[0, 0, 0, 0, 0, 0], [0, 0, 0, 0, 0, 0], [0, 0, 0, 0, 0, 0], [-78, -66, 54, 90, -24, 34]]",2,-10,-34,3,"[[-90, 14, -114, -41, 210, 42], [-91, 101, 22, 57, 105, 86], [94, -30, 150, -10, -154, 52], [-78, -66, 54, 90, -24, 34]]","[18, 19, 20, 21, 22, 23]",,,,test,14,75,0.31622776601683805
4,3648.0,438028,mouselab,False,"[-3, -24, -71, 39, 34, -52]","[0.010000000000000111, 0.58, 0.06, 0.35]",4,"[1647, 1871, 2144, 2504, 2792, 3015]",0.0,12Smwv1zSNyuuxE,24,"[[0, 0, 0, 0, 0, 0], [-6, -42, -123, 68, 59, -90], [0, 0, 0, 0, 0, 0], [0, 0, 0, 0, 0, 0]]",3,15,-9,3,"[[-120, 22, -32, -105, -105, 26], [-6, -42, -123, 68, 59, -90], [87, -117, 56, -95, 34, -15], [-72, 54, 86, 15, -103, -66]]","[6, 7, 8, 9, 10, 11]",,,,test,15,75,0.31622776601683805
4,4848.0,444051,mouselab,False,"[-29, 0, -51, 0, 71, -45]","[0.09, 0.1, 0.61, 0.2]",4,"[2711, 3199, 3719, 4127]",0.0,rVjVpCboG0KJwv1,16,"[[0, 0, 0, 0, 0, 0], [0, 0, 0, 0, 0, 0], [-48, 0, -84, 0, 116, -74], [0, 0, 0, 0, 0, 0]]",3,52,36,4,"[[10, -11, 78, -20, 94, 69], [-36, -45, 82, -86, -100, 31], [-48, -38, -84, 6, 116, -74], [114, 25, -50, -68, 52, 53]]","[12, 14, 16, 17]",,,,test,16,75,0.31622776601683805
4,3479.0,448628,mouselab,False,"[-39, 0, 26, 0, 64, 27]","[0.19, 0.01, 0.45, 0.35]",4,"[1455, 1943, 2479, 2735]",0.0,YwmSZ9XOPRdJfbN,16,"[[0, 0, 0, 0, 0, 0], [0, 0, 0, 0, 0, 0], [-87, 0, 57, 0, 142, 59], [0, 0, 0, 0, 0, 0]]",3,128,112,4,"[[-78, 47, -34, 184, -97, -79], [-99, 36, -76, 99, -22, 31], [-87, 88, 57, 26, 142, 59], [88, -44, 138, 16, 128, 71]]","[12, 14, 16, 17]",,,,test,17,75,0.31622776601683805
4,4016.0,453715,mouselab,False,"[-65, 0, 97, 0, 31, 88]","[0.09, 0.19, 0.08, 0.64]",4,"[1327, 1736, 2823, 3087]",0.0,WdVOkNPSiCkiKDf,16,"[[0, 0, 0, 0, 0, 0], [0, 0, 0, 0, 0, 0], [0, 0, 0, 0, 0, 0], [-101, 0, 152, 0, 48, 138]]",3,152,136,2,"[[-87, -59, 53, -49, -157, -46], [-139, 11, 115, -40, -204, -116], [-51, -61, -54, 52, 84, -15], [-101, -17, 152, -16, 48, 138]]","[18, 20, 22, 23]",,,,test,18,75,0.31622776601683805
4,3848.0,458939,mouselab,False,"[-37, 0, -4, 0, -15, -8]","[0.59, 0.22, 0.02, 0.17]",4,"[1656, 2119, 2567, 2799]",0.0,EDYV3TvmyqJrQOZ,16,"[[-62, 0, -7, 0, -26, -14], [0, 0, 0, 0, 0, 0], [0, 0, 0, 0, 0, 0], [0, 0, 0, 0, 0, 0]]",1,-32,-48,3,"[[-62, -42, -7, -47, -26, -14], [-13, -71, 120, -32, 98, -95], [-68, 29, -35, -55, -23, 22], [23, 4, 10, 112, 48, -82]]","[0, 2, 4, 5]",,,,test,19,75,0.31622776601683805
49,15934.0,71134,mouselab,True,"[0, 0, 0, 0, 0, 0]","[0.010000000000000009, 0.72, 0.12, 0.15]",1,[],20.0,ug6cLKSvnLTWxOA,0,"[[0, 0, 0, 0, 0, 0], [0, 0, 0, 0, 0, 0], [0, 0, 0, 0, 0, 0], [0, 0, 0, 0, 0, 0]]",3,137,137,0,"[[17, 177, 19, 74, 73, -20], [102, 26, 75, -67, -18, -105], [-12, -27, 39, -136, 124, -20], [137, 85, -76, -103, 43, 22]]",[],,,,instruct1,0,75,0.31622776601683805
49,7072.0,81990,mouselab,True,"[0, 0, 0, 0, 0, 0]","[0.01, 0.55, 0.38, 0.06]",1,[],20.0,I6ec6hcselxkUo2,0,"[[0, 0, 0, 0, 0, 0], [0, 0, 0, 0, 0, 0], [0, 0, 0, 0, 0, 0], [0, 0, 0, 0, 0, 0]]",1,84,84,2,"[[39, 19, -100, 124, 103, 74], [-118, 109, 84, 10, 20, 23], [-23, 10, -58, 2, 44, 176], [54, -12, -112, 123, -3, -141]]",[],,,,instruct1,1,75,0.31622776601683805
49,10304.0,95222,mouselab,True,"[0, 0, 0, 0, 0, 0]","[0.21, 0.18, 0.04, 0.57]",1,[],20.0,qOTp6WiWCwD2uUQ,0,"[[0, 0, 0, 0, 0, 0], [0, 0, 0, 0, 0, 0], [0, 0, 0, 0, 0, 0], [0, 0, 0, 0, 0, 0]]",1,-164,-164,5,"[[94, -20, -68, -94, 124, 158], [-14, -35, -77, -25, -65, -164], [-19, 79, -50, 72, 52, -77], [-8, -81, 111, 18, 65, -16]]",[],,,,instruct1,2,75,0.31622776601683805
49,13104.0,200335,mouselab,True,"[0, 0, 0, 0, 0, 0]","[0.49, 0.33, 0.02, 0.16]",1,[],20.0,sydK4yEJpghb956,0,"[[0, 0, 0, 0, 0, 0], [0, 0, 0, 0, 0, 0], [0, 0, 0, 0, 0, 0], [0, 0, 0, 0, 0, 0]]",1,62,62,1,"[[93, 36, 16, -28, -27, -110], [-89, 62, -33, 57, -138, 98], [-69, 20, -51, 29, -36, 51], [-24, -104, 23, -179, 36, 28]]",[],,,,instruct2,0,75,0.31622776601683805
49,9960.0,212014,mouselab,True,"[0, 0, 0, 0, 0, 0]","[0.73, 0.07, 0.03, 0.17]",1,[],20.0,PxAQf10GF4AeHJo,0,"[[0, 0, 0, 0, 0, 0], [0, 0, 0, 0, 0, 0], [0, 0, 0, 0, 0, 0], [0, 0, 0, 0, 0, 0]]",3,84,84,5,"[[-127, -18, 94, 27, 29, 103], [-93, 64, 190, 7, 35, 209], [38, 147, 47, 131, -72, 168], [-58, 3, 17, 15, 72, 84]]",[],dominating,,,instruct2,1,75,0.31622776601683805
49,6640.0,221390,mouselab,True,"[0, 0, 0, 0, 0, 0]","[0.46, 0.33, 0.05, 0.16]",1,[],20.0,3R2dgTJvGgi2aDr,0,"[[0, 0, 0, 0, 0, 0], [0, 0, 0, 0, 0, 0], [0, 0, 0, 0, 0, 0], [0, 0, 0, 0, 0, 0]]",0,259,259,2,"[[13, 46, 259, -75, 39, 30], [15, -44, -10, 89, 76, 22], [131, 34, 128, -15, 35, 83], [13, -56, -114, -80, -31, -61]]",[],,,,instruct2,2,75,0.31622776601683805
49,25104.0,308278,mouselab,True,"[62, -57, 0, 0, 0, 0]","[0.64, 0.33, 0.02, 0.01]",1,"[18120, 19079, 22247, 23328]",20.0,sI6tH6AHG2OwKDr,4,"[[41, 0, 0, 0, 0, 0], [104, -174, 0, 0, 0, 0], [58, 0, 0, 0, 0, 0], [0, 0, 0, 0, 0, 0]]",1,104,100,0,"[[41, 22, 90, -40, -15, 44], [104, -174, 6, -165, -44, -29], [58, 118, -11, 55, 57, 70], [59, -70, 14, 102, -60, -68]]","[0, 7, 6, 12]",,,,instruct3,0,75,0.31622776601683805
49,22680.0,333446,mouselab,True,"[-27, -34, 1, 122, -26, 71]","[0.44, 0.06, 0.02, 0.48]",1,"[3512, 4279, 5095, 6423, 7127, 7871, 8647, 9552, 10335, 11488, 12583]",20.0,FY7UVEq2c9ayqON,11,"[[-66, -56, -7, 130, -59, 90], [0, 0, 0, 0, 0, 0], [0, 0, 0, 0, 0, 0], [4, -19, 9, 135, 0, 66]]",0,130,119,3,"[[-66, -56, -7, 130, -59, 90], [92, 37, -91, 75, -10, 41], [24, -37, 16, 71, 116, -108], [4, -19, 9, 135, -15, 66]]","[0, 18, 19, 1, 2, 20, 21, 3, 4, 5, 23]",,,,instruct3,1,75,0.31622776601683805
49,20896.0,356742,mouselab,True,"[-18, 64, 9, 6, 34, -28]","[0.4200000000000001, 0.03, 0.18, 0.37]",1,"[2991, 3911, 4704, 5551, 6383, 6976, 7575, 8167, 8663, 9231, 9688, 10679, 13232]",20.0,vIc698BPf7klCYk,13,"[[-83, 61, -80, -38, 35, -120], [0, 0, 0, 0, 0, 0], [0, 80, 0, 0, 0, 0], [45, 65, 114, 60, 51, 60]]",0,61,48,1,"[[-83, 61, -80, -38, 35, -120], [-16, -48, 58, -12, 63, -5], [-102, 80, 44, 27, -11, 42], [45, 65, 114, 60, 51, 60]]","[0, 18, 19, 1, 2, 20, 21, 3, 4, 22, 23, 5, 13]",,,,instruct3,2,75,0.31622776601683805
49,20513.0,385918,mouselab,True,"[-3, -23, -45, 77, 94, -5]","[0.029999999999999992, 0.01, 0.77, 0.19]",1,"[2032, 2665, 3848, 4792, 5680, 6184, 6744, 7368]",20.0,Z6igLUgOZ1o22OJ,8,"[[0, 0, 0, 0, 0, 0], [0, 0, 0, 0, 0, 0], [-4, -30, -59, 98, 129, -6], [0, 0, 0, 7, -30, 0]]",3,7,-1,3,"[[-40, -36, -135, 25, -23, -26], [75, -26, -49, -47, -134, -139], [-4, -30, -59, 98, 129, -6], [72, -44, 39, 7, -30, 7]]","[12, 13, 14, 15, 16, 17, 22, 21]",,,,test,0,75,0.31622776601683805
49,20505.0,409062,mouselab,True,"[20, 35, 45, 64, 25, -37]","[0.06, 0.26, 0.14, 0.54]",1,"[1608, 2904, 3528, 4344, 5032, 5600, 6944, 7487, 8168, 9360, 9960, 10984, 15128]",20.0,3uXiz4V3sUrSmY9,13,"[[0, 0, 0, 0, 0, 0], [-98, -42, -2, 84, 60, -107], [0, 0, 0, -61, 0, 0], [84, 85, 84, 93, 18, -17]]",3,93,80,3,"[[-101, -31, 34, -10, 30, -23], [-98, -42, -2, 84, 60, -107], [65, -46, -22, -61, -87, 97], [84, 85, 84, 93, 18, -17]]","[18, 19, 20, 21, 22, 23, 11, 10, 9, 8, 7, 6, 15]",,,,test,1,75,0.31622776601683805
49,20552.0,434615,mouselab,True,"[26, 43, 67, 26, -7, -39]","[0.06, 0.07, 0.81, 0.06]",1,"[1815, 2399, 2991, 3679, 4951, 5599]",20.0,si1lNmExwYp0qHd,6,"[[0, 0, 0, 0, 0, 0], [0, 0, 0, 0, 0, 0], [32, 53, 83, 32, -9, -48], [0, 0, 0, 0, 0, 0]]",0,-146,-152,2,"[[-69, 74, -146, 18, -66, -39], [-59, 123, 55, -117, -17, -38], [32, 53, 83, 32, -9, -48], [-24, -104, 109, 21, 25, 52]]","[12, 13, 14, 15, 16, 17]",,,,test,2,75,0.31622776601683805
49,20640.0,458286,mouselab,True,"[-19, 10, -30, -33, -49, -93]","[0.02000000000000001, 0.04, 0.64, 0.3]",1,"[2039, 2535, 3079, 3671, 4399, 4839, 5303, 5847, 6383, 6831, 7263, 7791]",20.0,klD1PHboiI6GI83,12,"[[0, 0, 0, 0, 0, 0], [0, 0, 0, 0, 0, 0], [-22, 1, -38, -46, -67, -123], [-17, 31, -20, -11, -19, -48]]",3,31,19,1,"[[-56, 69, -45, 13, -11, -81], [158, 111, -15, 70, 133, 4], [-22, 1, -38, -46, -67, -123], [-17, 31, -20, -11, -19, -48]]","[12, 18, 19, 13, 14, 20, 21, 15, 16, 22, 23, 17]",,,,test,3,75,0.31622776601683805
49,20663.0,480990,mouselab,True,"[-40, 35, -4, -68, 55, -29]","[0.5, 0.19, 0.15, 0.16]",1,"[1927, 2552, 3231, 3967, 4479, 5039, 5519, 5983, 6431, 6855, 7296, 7735, 8151, 8751, 9335, 9759, 10208, 10703]",20.0,mlhb2P64mtEuQDH,18,"[[-53, 18, 23, -85, 45, -33], [-49, 130, -42, -100, 156, -80], [-29, 8, -51, -42, 21, 17], [0, 0, 0, 0, 0, 0]]",0,45,27,4,"[[-53, 18, 23, -85, 45, -33], [-49, 130, -42, -100, 156, -80], [-29, 8, -51, -42, 21, 17], [4, 19, 36, -77, -8, 23]]","[0, 1, 2, 3, 4, 5, 11, 10, 9, 8, 7, 6, 12, 13, 14, 15, 16, 17]",,,,test,4,75,0.31622776601683805
49,21528.0,503678,mouselab,True,"[-35, -21, -17, -32, 30, 49]","[0.06, 0.48, 0.03, 0.43]",1,"[1688, 2224, 2664, 3143, 3664, 4248, 4736, 5239, 5664, 6152, 6536, 7248, 19240, 19991]",20.0,Q8ZMcp5SHNKniCj,14,"[[0, 0, 0, 0, 0, 10], [-30, 23, 34, -38, 29, 130], [0, 0, 0, 0, 0, 94], [-47, -75, -77, -33, 38, -38]]",3,-38,-52,5,"[[-64, -14, -37, -37, -139, 10], [-30, 23, 34, -38, 29, 130], [50, -10, -34, 126, -54, 94], [-47, -75, -77, -33, 38, -38]]","[6, 18, 19, 7, 8, 20, 21, 9, 10, 22, 23, 11, 5, 17]",,,,test,5,75,0.31622776601683805
49,20423.0,526638,mouselab,True,"[77, -1, -36, -60, -92, 30]","[0.51, 0.17, 0.01, 0.31]",1,"[1759, 2255, 3215, 3623, 4159, 4967, 5351, 5680, 6198, 6775, 7350, 7726, 8623, 9007]",20.0,55wGWrG0AsulSFG,14,"[[61, -42, -94, -52, -163, 53], [85, 0, 0, 0, 0, 0], [53, 0, 0, 0, 0, 0], [101, 67, 39, -108, -29, 8]]",0,61,47,0,"[[61, -42, -94, -52, -163, 53], [85, -65, -84, 88, 40, 87], [53, -6, 64, -32, 83, -117], [101, 67, 39, -108, -29, 8]]","[0, 1, 18, 19, 20, 21, 22, 23, 5, 4, 3, 2, 6, 12]",,,,test,6,75,0.31622776601683805
49,20440.0,548590,mouselab,True,"[-28, 15, 49, 107, 1, -68]","[0.03, 0.03, 0.2, 0.74]",1,"[1703, 2287, 2719, 3079, 3424, 3760, 4128, 4495, 4839, 5215, 5639, 6055, 10983, 11383]",20.0,Gq2ftjqDBmr2chN,14,"[[0, 0, 0, -50, 0, 0], [0, 0, 0, 11, 0, 0], [-158, -3, -108, -8, -23, -72], [5, 21, 96, 148, 8, -72]]",3,148,134,3,"[[26, 3, -7, -50, 62, 37], [170, -11, -37, 11, -44, 59], [-158, -3, -108, -8, -23, -72], [5, 21, 96, 148, 8, -72]]","[18, 12, 13, 19, 20, 14, 15, 21, 22, 16, 17, 23, 9, 3]",,,,test,7,75,0.31622776601683805
49,20616.0,571165,mouselab,True,"[-37, 47, -38, -60, 71, 57]","[0.06000000000000001, 0.04, 0.88, 0.02]",1,"[1231, 1647, 2071, 2895, 3295, 3711]",20.0,PCWdMJAPeV3vIAW,6,"[[0, 0, 0, 0, 0, 0], [0, 0, 0, 0, 0, 0], [-42, 53, -43, -68, 81, 65], [0, 0, 0, 0, 0, 0]]",2,81,75,4,"[[-131, 85, 56, -12, -48, 108], [77, -51, -7, -137, 64, 40], [-42, 53, -43, -68, 81, 65], [67, -79, -44, 141, 59, -110]]","[12, 13, 14, 15, 16, 17]",,,,test,8,75,0.31622776601683805
49,20993.0,593550,mouselab,True,"[17, -35, 36, -97, 75, -53]","[0.06, 0.01, 0.6, 0.33]",1,"[1399, 1743, 2127, 2535, 2927, 3327, 3712, 4119, 4551, 4959, 5360, 5736]",20.0,q8OiXnEuGsljtb2,12,"[[0, 0, 0, 0, 0, 0], [0, 0, 0, 0, 0, 0], [46, -19, 69, -177, 14, -104], [-32, -73, -15, 28, 203, 27]]",2,14,2,4,"[[15, 90, 55, -167, -78, -16], [-46, -81, 39, 134, 26, -7], [46, -19, 69, -177, 14, -104], [-32, -73, -15, 28, 203, 27]]","[12, 18, 19, 13, 14, 20, 21, 15, 16, 22, 23, 17]",,,,test,9,75,0.31622776601683805
49,20577.0,616726,mouselab,True,"[32, -20, -15, 5, -19, -53]","[0.38, 0.05, 0.02, 0.55]",1,"[1472, 1912, 2344, 2776, 3208, 3576, 4184, 4616, 5048, 5465, 5872, 6232]",20.0,nQ4KJRm5qzDmfGs,12,"[[13, 44, -5, 28, -6, -76], [0, 0, 0, 0, 0, 0], [0, 0, 0, 0, 0, 0], [50, -67, -24, -11, -31, -43]]",3,50,38,0,"[[13, 44, -5, 28, -6, -76], [-40, 25, 9, -196, 123, -17], [-133, 45, -113, -55, 31, -16], [50, -67, -24, -11, -31, -43]]","[18, 19, 20, 21, 22, 23, 5, 4, 3, 2, 1, 0]",,,,test,10,75,0.31622776601683805
49,33238.0,651574,mouselab,True,"[-39, 49, 46, 47, 8, -18]","[0.02, 0.47, 0.14, 0.37]",1,"[1783, 3471, 3902, 4335, 4983, 5479, 6183, 6687, 16376, 18671, 23679, 24351, 24791, 25607]",20.0,02RpShoPR0hc5AX,14,"[[0, 0, 0, 0, 0, 0], [-84, 32, 105, 26, 11, 10], [0, 72, -55, -6, 0, 0], [0, 65, 13, 95, 7, -61]]",3,65,51,1,"[[-69, 20, -39, -17, -12, -39], [-84, 32, 105, 26, 11, 10], [55, 72, -55, -6, -46, 98], [-48, 65, 13, 95, 7, -61]]","[6, 7, 8, 9, 10, 11, 14, 20, 19, 13, 21, 22, 23, 15]",,,,test,11,75,0.31622776601683805
49,20512.0,673757,mouselab,True,"[-62, 44, -168, 44, -21, 19]","[0.04, 0.29, 0.65, 0.02]",1,"[1807, 2247, 2711, 3103, 3487, 3887, 4263, 4663, 5039, 5407, 5831, 6255]",20.0,lIbaNiqegro6KIA,12,"[[0, 0, 0, 0, 0, 0], [52, 14, -168, 7, -3, 51], [-119, 61, -183, 64, -31, 6], [0, 0, 0, 0, 0, 0]]",2,61,49,1,"[[140, 81, 49, 185, 81, -77], [52, 14, -168, 7, -3, 51], [-119, 61, -183, 64, -31, 6], [49, -53, -44, -94, 23, -90]]","[12, 6, 7, 13, 14, 8, 9, 15, 16, 10, 11, 17]",,,,test,12,75,0.31622776601683805
49,20672.0,696941,mouselab,True,"[-38, -57, 22, -9, -31, -57]","[0.37, 0.44, 0.17, 0.02]",1,"[2231, 2687, 3127, 3527, 4319, 4703, 5127, 5536, 5911, 6263, 6719, 7063]",20.0,IBOZgXFSkyvyiUf,12,"[[15, -30, 29, -47, -45, -53], [-99, -104, 26, 20, -32, -84], [0, 0, 0, 0, 0, 0], [0, 0, 0, 0, 0, 0]]",0,29,17,2,"[[15, -30, 29, -47, -45, -53], [-99, -104, 26, 20, -32, -84], [159, -28, 100, -106, 63, 32], [61, -31, -171, -16, -79, -55]]","[6, 0, 1, 7, 8, 2, 3, 9, 10, 4, 5, 11]",,,,test,13,75,0.31622776601683805
49,20624.0,719494,mouselab,True,"[5, -47, 98, 40, -84, 41]","[0.01999999999999999, 0.01, 0.47, 0.5]",1,"[1727, 2135, 2559, 2895, 3247, 3591, 4055, 4415, 4807, 5151, 5503, 5791]",20.0,VHZfp8VcgwqWdru,12,"[[0, 0, 0, 0, 0, 0], [0, 0, 0, 0, 0, 0], [94, -30, 150, -10, -154, 52], [-78, -66, 54, 90, -24, 34]]",2,150,138,2,"[[-90, 14, -114, -41, 210, 42], [-91, 101, 22, 57, 105, 86], [94, -30, 150, -10, -154, 52], [-78, -66, 54, 90, -24, 34]]","[12, 18, 19, 13, 14, 20, 21, 15, 16, 22, 23, 17]",,,,test,14,75,0.31622776601683805
49,20448.0,741686,mouselab,True,"[-29, -5, -38, 45, -2, -75]","[0.010000000000000111, 0.58, 0.06, 0.35]",1,"[1472, 1928, 2271, 2608, 2959, 3351, 3919, 4519, 4960, 5383, 5831, 6175, 6559]",20.0,12Smwv1zSNyuuxE,13,"[[0, 0, 0, 0, 0, 0], [-6, -42, -123, 68, 59, -90], [0, 0, 56, 0, 0, 0], [-72, 54, 86, 15, -103, -66]]",3,15,2,3,"[[-120, 22, -32, -105, -105, 26], [-6, -42, -123, 68, 59, -90], [87, -117, 56, -95, 34, -15], [-72, 54, 86, 15, -103, -66]]","[6, 18, 19, 7, 8, 14, 20, 21, 9, 10, 22, 23, 11]",,,,test,15,75,0.31622776601683805
49,21528.0,765126,mouselab,True,"[-6, -18, -61, -10, 71, -35]","[0.09, 0.1, 0.61, 0.2]",1,"[1855, 2272, 2967, 3375, 3751, 4175, 5063, 5432, 5815, 6256, 7071, 7671, 10375]",20.0,rVjVpCboG0KJwv1,13,"[[0, 0, 0, 0, 0, 0], [0, 0, 0, 0, -100, 0], [-48, -38, -84, 6, 116, -74], [114, 25, -50, -68, 52, 53]]",1,-100,-113,4,"[[10, -11, 78, -20, 94, 69], [-36, -45, 82, -86, -100, 31], [-48, -38, -84, 6, 116, -74], [114, 25, -50, -68, 52, 53]]","[12, 18, 19, 13, 14, 20, 21, 15, 16, 22, 10, 17, 23]",,,,test,16,75,0.31622776601683805
49,20496.0,787077,mouselab,True,"[-8, 24, 67, 17, 90, 51]","[0.19, 0.01, 0.45, 0.35]",1,"[1792, 2176, 2535, 2927, 3312, 3687, 4072, 4536, 5015, 5367, 5807, 6151, 7887, 8871]",20.0,YwmSZ9XOPRdJfbN,14,"[[0, 0, -34, 0, -97, 0], [0, 0, 0, 0, 0, 0], [-87, 88, 57, 26, 142, 59], [88, -44, 138, 16, 128, 71]]",2,142,128,4,"[[-78, 47, -34, 184, -97, -79], [-99, 36, -76, 99, -22, 31], [-87, 88, 57, 26, 142, 59], [88, -44, 138, 16, 128, 71]]","[12, 18, 19, 13, 14, 20, 21, 15, 16, 22, 23, 17, 4, 2]",,,,test,17,75,0.31622776601683805
49,20448.0,808958,mouselab,True,"[-91, -9, 119, -18, -8, 66]","[0.09, 0.19, 0.08, 0.64]",1,"[3144, 3624, 4063, 4496, 4856, 5200, 5520, 5959, 6327, 6672, 7015, 7367]",20.0,WdVOkNPSiCkiKDf,12,"[[0, 0, 0, 0, 0, 0], [-139, 11, 115, -40, -204, -116], [0, 0, 0, 0, 0, 0], [-101, -17, 152, -16, 48, 138]]",1,115,103,2,"[[-87, -59, 53, -49, -157, -46], [-139, 11, 115, -40, -204, -116], [-51, -61, -54, 52, 84, -15], [-101, -17, 152, -16, 48, 138]]","[18, 6, 7, 19, 20, 8, 9, 21, 22, 10, 11, 23]",,,,test,18,75,0.31622776601683805
49,20760.0,831029,mouselab,True,"[-36, -40, 24, -35, 14, -29]","[0.59, 0.22, 0.02, 0.17]",1,"[2088, 2535, 4304, 4927, 5320, 5671, 6039, 6431, 7711, 8143, 8551, 10391, 14383, 14872, 15607, 16231]",20.0,EDYV3TvmyqJrQOZ,16,"[[-62, -42, -7, -47, -26, -14], [-13, -71, 120, -32, 98, -95], [0, 0, 0, 0, 0, 0], [23, 4, 10, 0, 48, 0]]",1,120,104,2,"[[-62, -42, -7, -47, -26, -14], [-13, -71, 120, -32, 98, -95], [-68, 29, -35, -55, -23, 22], [23, 4, 10, 112, 48, -82]]","[0, 6, 18, 19, 7, 1, 2, 8, 3, 4, 5, 20, 11, 10, 9, 22]",,,,test,19,75,0.31622776601683805
30,26727.0,39792,mouselab,True,"[0, 0, 0, 0, 0, 0]","[0.010000000000000009, 0.72, 0.12, 0.15]",4,[],20.0,ug6cLKSvnLTWxOA,0,"[[0, 0, 0, 0, 0, 0], [0, 0, 0, 0, 0, 0], [0, 0, 0, 0, 0, 0], [0, 0, 0, 0, 0, 0]]",1,102,102,0,"[[17, 177, 19, 74, 73, -20], [102, 26, 75, -67, -18, -105], [-12, -27, 39, -136, 124, -20], [137, 85, -76, -103, 43, 22]]",[],,,,instruct1,0,75,0.31622776601683805
30,6634.0,48791,mouselab,True,"[0, 0, 0, 0, 0, 0]","[0.01, 0.55, 0.38, 0.06]",4,[],20.0,I6ec6hcselxkUo2,0,"[[0, 0, 0, 0, 0, 0], [0, 0, 0, 0, 0, 0], [0, 0, 0, 0, 0, 0], [0, 0, 0, 0, 0, 0]]",2,-58,-58,2,"[[39, 19, -100, 124, 103, 74], [-118, 109, 84, 10, 20, 23], [-23, 10, -58, 2, 44, 176], [54, -12, -112, 123, -3, -141]]",[],,,,instruct1,1,75,0.31622776601683805
30,12680.0,64469,mouselab,True,"[0, 0, 0, 0, 0, 0]","[0.21, 0.18, 0.04, 0.57]",4,[],20.0,qOTp6WiWCwD2uUQ,0,"[[0, 0, 0, 0, 0, 0], [0, 0, 0, 0, 0, 0], [0, 0, 0, 0, 0, 0], [0, 0, 0, 0, 0, 0]]",3,-16,-16,5,"[[94, -20, -68, -94, 124, 158], [-14, -35, -77, -25, -65, -164], [-19, 79, -50, 72, 52, -77], [-8, -81, 111, 18, 65, -16]]",[],,,,instruct1,2,75,0.31622776601683805
30,22095.0,179184,mouselab,True,"[0, 0, 0, 0, 0, 0]","[0.49, 0.33, 0.02, 0.16]",4,[],20.0,sydK4yEJpghb956,0,"[[0, 0, 0, 0, 0, 0], [0, 0, 0, 0, 0, 0], [0, 0, 0, 0, 0, 0], [0, 0, 0, 0, 0, 0]]",1,62,62,1,"[[93, 36, 16, -28, -27, -110], [-89, 62, -33, 57, -138, 98], [-69, 20, -51, 29, -36, 51], [-24, -104, 23, -179, 36, 28]]",[],,,,instruct2,0,75,0.31622776601683805
30,13519.0,195459,mouselab,True,"[0, 0, 0, 0, 0, 0]","[0.73, 0.07, 0.03, 0.17]",4,[],20.0,PxAQf10GF4AeHJo,0,"[[0, 0, 0, 0, 0, 0], [0, 0, 0, 0, 0, 0], [0, 0, 0, 0, 0, 0], [0, 0, 0, 0, 0, 0]]",0,103,103,5,"[[-127, -18, 94, 27, 29, 103], [-93, 64, 190, 7, 35, 209], [38, 147, 47, 131, -72, 168], [-58, 3, 17, 15, 72, 84]]",[],dominating,,,instruct2,1,75,0.31622776601683805
30,19149.0,216911,mouselab,True,"[0, 0, 0, 0, 0, 0]","[0.46, 0.33, 0.05, 0.16]",4,[],20.0,3R2dgTJvGgi2aDr,0,"[[0, 0, 0, 0, 0, 0], [0, 0, 0, 0, 0, 0], [0, 0, 0, 0, 0, 0], [0, 0, 0, 0, 0, 0]]",1,76,76,4,"[[13, 46, 259, -75, 39, 30], [15, -44, -10, 89, 76, 22], [131, 34, 128, -15, 35, 83], [13, -56, -114, -80, -31, -61]]",[],,,,instruct2,2,75,0.31622776601683805
30,55955.0,276562,mouselab,True,"[61, 0, 0, -26, 0, 0]","[0.64, 0.33, 0.02, 0.01]",4,"[49399, 50972, 53171]",20.0,sI6tH6AHG2OwKDr,12,"[[41, 0, 0, -40, 0, 0], [104, 0, 0, 0, 0, 0], [0, 0, 0, 0, 0, 0], [0, 0, 0, 0, 0, 0]]",0,41,29,0,"[[41, 22, 90, -40, -15, 44], [104, -174, 6, -165, -44, -29], [58, 118, -11, 55, 57, 70], [59, -70, 14, 102, -60, -68]]","[0, 3, 6]",,,,instruct3,0,75,0.31622776601683805
30,20884.0,307233,mouselab,True,"[-29, -9, 0, 57, 0, 0]","[0.44, 0.06, 0.02, 0.48]",4,"[6845, 8391, 10313]",20.0,FY7UVEq2c9ayqON,12,"[[-66, 0, 0, 130, 0, 0], [0, 0, 0, 0, 0, 0], [0, 0, 0, 0, 0, 0], [0, -19, 0, 0, 0, 0]]",3,135,123,3,"[[-66, -56, -7, 130, -59, 90], [92, 37, -91, 75, -10, 41], [24, -37, 16, 71, 116, -108], [4, -19, 9, 135, -15, 66]]","[0, 19, 3]",,,,instruct3,1,75,0.31622776601683805
30,20860.0,335114,mouselab,True,"[-35, 0, 9, 0, 34, 0]","[0.4200000000000001, 0.03, 0.18, 0.37]",4,"[5565, 7314, 8879, 13539, 14773]",20.0,vIc698BPf7klCYk,20,"[[-83, 0, -80, 0, 35, 0], [0, 0, 0, 0, 0, 0], [0, 0, 0, 0, 0, 0], [0, 0, 114, 0, 51, 0]]",2,-11,-31,4,"[[-83, 61, -80, -38, 35, -120], [-16, -48, 58, -12, 63, -5], [-102, 80, 44, 27, -11, 42], [45, 65, 114, 60, 51, 60]]","[0, 20, 2, 22, 4]",,,,instruct3,2,75,0.31622776601683805
30,21075.0,394095,mouselab,True,"[-3, -23, -45, 77, 94, -5]","[0.029999999999999992, 0.01, 0.77, 0.19]",4,"[4022, 5318, 6617, 9614, 11100, 12648, 14345, 18650]",20.0,Z6igLUgOZ1o22OJ,32,"[[0, 0, 0, 0, 0, 0], [0, 0, 0, 0, 0, 0], [-4, -30, -59, 98, 129, -6], [0, 0, 0, 7, -30, 0]]",2,98,66,3,"[[-40, -36, -135, 25, -23, -26], [75, -26, -49, -47, -134, -139], [-4, -30, -59, 98, 129, -6], [72, -44, 39, 7, -30, 7]]","[12, 14, 16, 22, 17, 15, 21, 13]",,,,test,0,75,0.31622776601683805
30,20806.0,418113,mouselab,True,"[20, -11, 45, 72, 10, -9]","[0.06, 0.26, 0.14, 0.54]",4,"[3495, 6062, 7827, 9057, 10335, 12718, 15065, 16098, 17533]",20.0,3uXiz4V3sUrSmY9,36,"[[0, 0, 0, 0, 0, 0], [-98, -42, -2, 84, 0, 0], [0, 0, 0, 0, 0, 0], [84, 0, 84, 93, 18, -17]]",1,84,48,3,"[[-101, -31, 34, -10, 30, -23], [-98, -42, -2, 84, 60, -107], [65, -46, -22, -61, -87, 97], [84, 85, 84, 93, 18, -17]]","[18, 6, 20, 8, 7, 22, 23, 21, 9]",,,,test,1,75,0.31622776601683805
30,20776.0,441017,mouselab,True,"[26, 43, 67, 26, -7, -39]","[0.06, 0.07, 0.81, 0.06]",4,"[3149, 6553, 7605, 8364, 9347, 10291]",20.0,si1lNmExwYp0qHd,24,"[[0, 0, 0, 0, 0, 0], [0, 0, 0, 0, 0, 0], [32, 53, 83, 32, -9, -48], [0, 0, 0, 0, 0, 0]]",2,83,59,2,"[[-69, 74, -146, 18, -66, -39], [-59, 123, 55, -117, -17, -38], [32, 53, 83, 32, -9, -48], [-24, -104, 109, 21, 25, 52]]","[13, 15, 16, 17, 14, 12]",,,,test,2,75,0.31622776601683805
30,21149.0,467872,mouselab,True,"[-14, 10, -24, -29, -43, -79]","[0.02000000000000001, 0.04, 0.64, 0.3]",4,"[2298, 3931, 4876, 5658, 6609, 7383, 11442]",20.0,klD1PHboiI6GI83,28,"[[0, 0, 0, 0, 0, 0], [0, 0, 0, 0, 0, 0], [-22, 1, -38, -46, -67, -123], [0, 31, 0, 0, 0, 0]]",3,31,3,1,"[[-56, 69, -45, 13, -11, -81], [158, 111, -15, 70, 133, 4], [-22, 1, -38, -46, -67, -123], [-17, 31, -20, -11, -19, -48]]","[13, 15, 16, 17, 14, 12, 19]",,,,test,3,75,0.31622776601683805
30,24112.0,494594,mouselab,True,"[-26, 9, 12, -42, 52, -16]","[0.5, 0.19, 0.15, 0.16]",4,"[3752, 4966, 5866, 6640, 7631, 8382, 10632]",20.0,mlhb2P64mtEuQDH,28,"[[-53, 18, 23, -85, 45, -33], [0, 0, 0, 0, 156, 0], [0, 0, 0, 0, 0, 0], [0, 0, 0, 0, 0, 0]]",2,21,-7,4,"[[-53, 18, 23, -85, 45, -33], [-49, 130, -42, -100, 156, -80], [-29, 8, -51, -42, 21, 17], [4, 19, 36, -77, -8, 23]]","[0, 3, 2, 1, 4, 5, 10]",,,,test,4,75,0.31622776601683805
30,25500.0,523207,mouselab,True,"[-14, -21, -17, -18, 30, 46]","[0.06, 0.48, 0.03, 0.43]",4,"[8490, 9930, 11818, 13231, 14145, 14884, 16225, 17764, 20675, 21729]",20.0,Q8ZMcp5SHNKniCj,40,"[[0, 0, 0, 0, 0, 0], [-30, 23, 34, -38, 29, 130], [0, 0, 0, 0, 0, 0], [0, -75, -77, 0, 38, -38]]",3,38,-2,4,"[[-64, -14, -37, -37, -139, 10], [-30, 23, 34, -38, 29, 130], [50, -10, -34, 126, -54, 94], [-47, -75, -77, -33, 38, -38]]","[6, 8, 20, 9, 10, 11, 23, 7, 22, 19]",,,,test,5,75,0.31622776601683805
30,20756.0,548117,mouselab,True,"[46, 0, 0, 0, 0, 0]","[0.51, 0.17, 0.01, 0.31]",4,"[3024, 6136]",20.0,55wGWrG0AsulSFG,8,"[[61, 0, 0, 0, 0, 0], [85, 0, 0, 0, 0, 0], [0, 0, 0, 0, 0, 0], [0, 0, 0, 0, 0, 0]]",3,101,93,0,"[[61, -42, -94, -52, -163, 53], [85, -65, -84, 88, 40, 87], [53, -6, 64, -32, 83, -117], [101, 67, 39, -108, -29, 8]]","[0, 6]",,,,test,6,75,0.31622776601683805
30,20966.0,571258,mouselab,True,"[4, 16, 49, 108, 6, -53]","[0.03, 0.03, 0.2, 0.74]",4,"[3630, 4729, 6843, 8036, 9173, 10628, 11503, 12588]",20.0,Gq2ftjqDBmr2chN,32,"[[0, 0, 0, 0, 0, 0], [0, 0, 0, 0, 0, 0], [0, 0, -108, -8, 0, 0], [5, 21, 96, 148, 8, -72]]",3,148,116,3,"[[26, 3, -7, -50, 62, 37], [170, -11, -37, 11, -44, 59], [-158, -3, -108, -8, -23, -72], [5, 21, 96, 148, 8, -72]]","[18, 20, 14, 21, 15, 22, 23, 19]",,,,test,7,75,0.31622776601683805
30,22303.0,596597,mouselab,True,"[-37, 0, -38, -60, 71, 0]","[0.06000000000000001, 0.04, 0.88, 0.02]",4,"[1979, 3450, 4395, 5122]",20.0,PCWdMJAPeV3vIAW,16,"[[0, 0, 0, 0, 0, 0], [0, 0, 0, 0, 0, 0], [-42, 0, -43, -68, 81, 0], [0, 0, 0, 0, 0, 0]]",2,81,65,4,"[[-131, 85, 56, -12, -48, 108], [77, -51, -7, -137, 64, 40], [-42, 53, -43, -68, 81, 65], [67, -79, -44, 141, 59, -110]]","[12, 14, 15, 16]",,,,test,8,75,0.31622776601683805
30,23542.0,622188,mouselab,True,"[17, -11, 36, -106, 75, -53]","[0.06, 0.01, 0.6, 0.33]",4,"[9650, 10848, 12786, 13698, 15497, 16399, 17341, 18043, 19377, 20989]",20.0,q8OiXnEuGsljtb2,40,"[[0, 0, 0, 0, 0, 0], [0, 0, 0, 0, 0, 0], [46, -19, 69, -177, 14, -104], [-32, 0, -15, 0, 203, 27]]",2,14,-26,4,"[[15, 90, 55, -167, -78, -16], [-46, -81, 39, 134, 26, -7], [46, -19, 69, -177, 14, -104], [-32, -73, -15, 28, 203, 27]]","[12, 18, 16, 22, 15, 14, 13, 20, 17, 23]",,,,test,9,75,0.31622776601683805
30,22081.0,649964,mouselab,True,"[32, 0, -13, 0, 0, 0]","[0.38, 0.05, 0.02, 0.55]",4,"[2932, 4209, 6571]",20.0,nQ4KJRm5qzDmfGs,12,"[[13, 0, 0, 0, 0, 0], [0, 0, 0, 0, 0, 0], [0, 0, 0, 0, 0, 0], [50, 0, -24, 0, 0, 0]]",3,50,38,0,"[[13, 44, -5, 28, -6, -76], [-40, 25, 9, -196, 123, -17], [-133, 45, -113, -55, 31, -16], [50, -67, -24, -11, -31, -43]]","[18, 0, 20]",,,,test,10,75,0.31622776601683805
30,20780.0,676107,mouselab,True,"[-39, 0, 54, 47, 0, 0]","[0.02, 0.47, 0.14, 0.37]",4,"[4404, 5897, 7833, 11441, 12874]",20.0,02RpShoPR0hc5AX,20,"[[0, 0, 0, 0, 0, 0], [-84, 0, 105, 26, 0, 0], [0, 0, 0, 0, 0, 0], [0, 0, 13, 95, 0, 0]]",3,13,-7,2,"[[-69, 20, -39, -17, -12, -39], [-84, 32, 105, 26, 11, 10], [55, 72, -55, -6, -46, 98], [-48, 65, 13, 95, 7, -61]]","[6, 9, 21, 8, 20]",,,,test,11,75,0.31622776601683805
30,20997.0,700446,mouselab,True,"[-77, 0, -119, 44, -20, 0]","[0.04, 0.29, 0.65, 0.02]",4,"[4016, 7268, 9327, 11471, 12950]",20.0,lIbaNiqegro6KIA,20,"[[0, 0, 0, 0, 0, 0], [0, 0, 0, 7, 0, 0], [-119, 0, -183, 64, -31, 0], [0, 0, 0, 0, 0, 0]]",2,64,44,3,"[[140, 81, 49, 185, 81, -77], [52, 14, -168, 7, -3, 51], [-119, 61, -183, 64, -31, 6], [49, -53, -44, -94, 23, -90]]","[12, 15, 9, 14, 16]",,,,test,12,75,0.31622776601683805
30,20646.0,725071,mouselab,True,"[-44, -46, 22, -9, -14, -37]","[0.37, 0.44, 0.17, 0.02]",4,"[2889, 4133, 5186, 6327, 8077, 9211, 10103, 11379]",20.0,IBOZgXFSkyvyiUf,32,"[[0, 0, 29, -47, 0, 0], [-99, -104, 26, 20, -32, -84], [0, 0, 0, 0, 0, 0], [0, 0, 0, 0, 0, 0]]",1,26,-6,2,"[[15, -30, 29, -47, -45, -53], [-99, -104, 26, 20, -32, -84], [159, -28, 100, -106, 63, 32], [61, -31, -171, -16, -79, -55]]","[6, 3, 9, 8, 7, 10, 11, 2]",,,,test,13,75,0.31622776601683805
30,20739.0,748038,mouselab,True,"[0, -33, 98, 40, -12, 0]","[0.01999999999999999, 0.01, 0.47, 0.5]",4,"[5509, 6639, 7524, 10356, 12151, 13220]",20.0,VHZfp8VcgwqWdru,24,"[[0, 0, 0, 0, 0, 0], [0, 0, 0, 0, 0, 0], [0, 0, 150, -10, 0, 0], [0, -66, 54, 90, -24, 0]]",2,150,126,2,"[[-90, 14, -114, -41, 210, 42], [-91, 101, 22, 57, 105, 86], [94, -30, 150, -10, -154, 52], [-78, -66, 54, 90, -24, 34]]","[19, 22, 21, 15, 20, 14]",,,,test,14,75,0.31622776601683805
30,20764.0,773709,mouselab,True,"[0, -24, -71, 45, 0, 0]","[0.010000000000000111, 0.58, 0.06, 0.35]",4,"[2184, 3559, 4490, 6154]",20.0,12Smwv1zSNyuuxE,16,"[[0, 0, 0, 0, 0, 0], [0, -42, -123, 68, 0, 0], [0, 0, 0, 0, 0, 0], [0, 0, 0, 15, 0, 0]]",3,15,-1,3,"[[-120, 22, -32, -105, -105, 26], [-6, -42, -123, 68, 59, -90], [87, -117, 56, -95, 34, -15], [-72, 54, 86, 15, -103, -66]]","[7, 8, 9, 21]",,,,test,15,75,0.31622776601683805
30,20664.0,796769,mouselab,True,"[-29, -23, -51, 4, 81, 0]","[0.09, 0.1, 0.61, 0.2]",4,"[3087, 4347, 5331, 6415, 7909, 9434]",20.0,rVjVpCboG0KJwv1,24,"[[0, 0, 0, 0, 0, 0], [0, 0, 0, 0, 0, 0], [-48, -38, -84, 6, 116, 0], [0, 0, 0, 0, 52, 0]]",2,116,92,4,"[[10, -11, 78, -20, 94, 69], [-36, -45, 82, -86, -100, 31], [-48, -38, -84, 6, 116, -74], [114, 25, -50, -68, 52, 53]]","[12, 15, 14, 13, 16, 22]",,,,test,16,75,0.31622776601683805
30,21731.0,821671,mouselab,True,"[-39, 24, 67, 12, 109, 0]","[0.19, 0.01, 0.45, 0.35]",4,"[2826, 4607, 6637, 7647, 9196, 10722, 12890, 14359, 15860]",20.0,YwmSZ9XOPRdJfbN,36,"[[0, 0, -34, 0, 0, 0], [0, 0, 0, 0, 0, 0], [-87, 88, 57, 26, 142, 0], [0, -44, 138, 0, 128, 0]]",2,142,106,4,"[[-78, 47, -34, 184, -97, -79], [-99, 36, -76, 99, -22, 31], [-87, 88, 57, 26, 142, 59], [88, -44, 138, 16, 128, 71]]","[13, 19, 12, 14, 20, 2, 15, 16, 22]",,,,test,17,75,0.31622776601683805
30,20678.0,845137,mouselab,True,"[0, -11, 119, -10, -8, 66]","[0.09, 0.19, 0.08, 0.64]",4,"[2437, 3840, 4892, 6441, 7906, 9420, 11100, 12641]",20.0,WdVOkNPSiCkiKDf,32,"[[0, 0, 0, 0, 0, 0], [0, 0, 115, 0, -204, -116], [0, 0, 0, 0, 0, 0], [0, -17, 152, -16, 48, 138]]",3,152,120,2,"[[-87, -59, 53, -49, -157, -46], [-139, 11, 115, -40, -204, -116], [-51, -61, -54, 52, 84, -15], [-101, -17, 152, -16, 48, 138]]","[19, 21, 22, 10, 23, 11, 20, 8]",,,,test,18,75,0.31622776601683805
30,22935.0,870751,mouselab,True,"[-39, -25, -4, -28, -15, -8]","[0.59, 0.22, 0.02, 0.17]",4,"[2961, 4356, 5299, 6259, 7096, 9302, 14575]",20.0,EDYV3TvmyqJrQOZ,28,"[[-62, -42, -7, -47, -26, -14], [-13, 0, 0, 0, 0, 0], [0, 0, 0, 0, 0, 0], [0, 0, 0, 0, 0, 0]]",0,-7,-35,2,"[[-62, -42, -7, -47, -26, -14], [-13, -71, 120, -32, 98, -95], [-68, 29, -35, -55, -23, 22], [23, 4, 10, 112, 48, -82]]","[1, 2, 3, 4, 5, 0, 6]",,,,test,19,75,0.31622776601683805
55,8479.0,53954,mouselab,False,"[0, 0, 0, 0, 0, 0]","[0.16, 0.19, 0.14, 0.51]",4,[],0.0,X12BTfukFos6kXf,0,"[[0, 0, 0, 0, 0, 0], [0, 0, 0, 0, 0, 0], [0, 0, 0, 0, 0, 0], [0, 0, 0, 0, 0, 0]]",3,39,39,0,"[[7, -35, -215, 120, 66, 61], [25, 127, -118, -78, -113, -87], [141, 21, -58, -44, 57, 72], [39, -44, -105, -76, -59, 146]]",[],,,,instruct1,0,75,3.1622776601683813
55,3909.0,60443,mouselab,False,"[0, 0, 0, 0, 0, 0]","[0.23, 0.2, 0.41, 0.16]",4,[],0.0,q2A1Z7ZePsS6Nvy,0,"[[0, 0, 0, 0, 0, 0], [0, 0, 0, 0, 0, 0], [0, 0, 0, 0, 0, 0], [0, 0, 0, 0, 0, 0]]",1,-18,-18,2,"[[-84, 0, -102, -86, 110, 1], [-45, 33, -18, -17, -58, -62], [60, -70, 0, 25, 84, -28], [-29, -156, -38, 156, -62, -4]]",[],,,,instruct1,1,75,3.1622776601683813
55,6813.0,69950,mouselab,False,"[0, 0, 0, 0, 0, 0]","[0.21, 0.18, 0.04, 0.57]",4,[],0.0,EeEorZ4EuC60csv,0,"[[0, 0, 0, 0, 0, 0], [0, 0, 0, 0, 0, 0], [0, 0, 0, 0, 0, 0], [0, 0, 0, 0, 0, 0]]",3,5,5,5,"[[57, 100, -110, 45, -81, -56], [42, -104, 14, -55, -16, 37], [16, -15, 45, -72, -145, -24], [158, 10, -23, 60, -73, 5]]",[],,,,instruct1,2,75,3.1622776601683813
55,5290.0,160933,mouselab,False,"[0, 0, 0, 0, 0, 0]","[0.19, 0.18, 0.38, 0.25]",4,[],0.0,NouMBuG9exsqUGl,0,"[[0, 0, 0, 0, 0, 0], [0, 0, 0, 0, 0, 0], [0, 0, 0, 0, 0, 0], [0, 0, 0, 0, 0, 0]]",0,16,16,1,"[[56, 16, 62, -42, 150, 1], [182, -46, 1, 48, 183, 30], [-161, -40, -103, -188, 82, 15], [127, -40, -47, 106, 0, -104]]",[],,,,instruct2,0,75,3.1622776601683813
55,1318.0,164479,mouselab,False,"[0, 0, 0, 0, 0, 0]","[0.2, 0.13, 0.32, 0.35]",4,[],0.0,dKP45ICu0Osq80X,0,"[[0, 0, 0, 0, 0, 0], [0, 0, 0, 0, 0, 0], [0, 0, 0, 0, 0, 0], [0, 0, 0, 0, 0, 0]]",0,-1,-1,2,"[[-34, -12, -1, -7, -31, 7], [-66, 35, -53, -30, 90, 101], [5, 46, -4, -162, 142, 173], [4, -92, -93, -20, 31, 68]]",[],dominating,,,instruct2,1,75,3.1622776601683813
55,1336.0,167971,mouselab,False,"[0, 0, 0, 0, 0, 0]","[0.3699999999999999, 0.14, 0.33, 0.16]",4,[],0.0,ZWVbJxG8rjB5il8,0,"[[0, 0, 0, 0, 0, 0], [0, 0, 0, 0, 0, 0], [0, 0, 0, 0, 0, 0], [0, 0, 0, 0, 0, 0]]",2,4,4,4,"[[18, -10, 203, -7, 46, -17], [7, 108, -136, -213, 101, -93], [20, 79, 39, 35, 4, -9], [-5, 15, 16, -5, -90, -23]]",[],,,,instruct2,2,75,3.1622776601683813
55,2090.0,173313,mouselab,False,"[0, 0, 0, 0, 0, 0]","[0.27, 0.19, 0.18, 0.36]",4,[],0.0,I5b0PAbIlpxRoZM,0,"[[0, 0, 0, 0, 0, 0], [0, 0, 0, 0, 0, 0], [0, 0, 0, 0, 0, 0], [0, 0, 0, 0, 0, 0]]",0,-38,-38,2,"[[67, -83, -38, -12, -151, -19], [77, 40, 1, -130, 42, -33], [-67, 181, -35, -84, -59, -65], [-36, -113, -20, 7, 100, 42]]",[],,,,instruct3,0,75,3.1622776601683813
55,1716.0,177955,mouselab,False,"[0, 0, 0, 0, 0, 0]","[0.26, 0.3, 0.11, 0.33]",4,[],0.0,u7IBgyHnuPo3z1t,0,"[[0, 0, 0, 0, 0, 0], [0, 0, 0, 0, 0, 0], [0, 0, 0, 0, 0, 0], [0, 0, 0, 0, 0, 0]]",0,-39,-39,1,"[[-64, -39, -57, -32, -95, 22], [45, 60, 117, 8, -91, -4], [64, 49, 28, -54, 6, -79], [10, 90, -49, 49, -91, -87]]",[],,,,instruct3,1,75,3.1622776601683813
55,1176.0,181797,mouselab,False,"[0, 0, 0, 0, 0, 0]","[0.09, 0.14, 0.43, 0.34]",4,[],0.0,dfucN9SrzSSRDqJ,0,"[[0, 0, 0, 0, 0, 0], [0, 0, 0, 0, 0, 0], [0, 0, 0, 0, 0, 0], [0, 0, 0, 0, 0, 0]]",2,65,65,0,"[[0, 100, 41, 42, -7, -82], [76, 56, 92, 14, 4, -113], [65, 66, 81, -21, -21, -30], [-7, -124, -14, 17, 23, 54]]",[],,,,instruct3,2,75,3.1622776601683813
55,1980.0,187824,mouselab,False,"[0, 0, 0, 0, 0, 0]","[0.29, 0.22, 0.26, 0.23]",4,[],0.0,tK9NSXZJXL2a1DM,0,"[[0, 0, 0, 0, 0, 0], [0, 0, 0, 0, 0, 0], [0, 0, 0, 0, 0, 0], [0, 0, 0, 0, 0, 0]]",1,2,2,5,"[[27, -53, -32, -18, 75, 68], [29, 3, 15, 149, -146, 2], [9, 32, -68, 54, -108, -104], [98, 31, 97, 8, -114, -101]]",[],,,,test,0,75,3.1622776601683813
55,1354.0,191139,mouselab,False,"[0, 0, 0, 0, 0, 0]","[0.23, 0.32, 0.29, 0.16]",4,[],0.0,HO2m16im97e1RLZ,0,"[[0, 0, 0, 0, 0, 0], [0, 0, 0, 0, 0, 0], [0, 0, 0, 0, 0, 0], [0, 0, 0, 0, 0, 0]]",3,-4,-4,4,"[[-50, 10, -163, 57, 26, 95], [13, -25, 81, 4, -24, -10], [-85, 19, -88, 37, -86, 5], [-41, 47, 116, -1, -4, -34]]",[],,,,test,1,75,3.1622776601683813
55,1176.0,194834,mouselab,False,"[0, 0, 0, 0, 0, 0]","[0.13, 0.2, 0.22, 0.45]",4,[],0.0,8EHleEowa3Bcw0G,0,"[[0, 0, 0, 0, 0, 0], [0, 0, 0, 0, 0, 0], [0, 0, 0, 0, 0, 0], [0, 0, 0, 0, 0, 0]]",3,-19,-19,5,"[[59, -89, 21, -2, 37, 133], [-18, -27, 46, 2, -14, -42], [59, -48, -70, -34, 54, 132], [138, -20, 55, -19, -23, -19]]",[],,,,test,2,75,3.1622776601683813
55,2948.0,199570,mouselab,False,"[0, 0, 0, 0, 0, 0]","[0.45, 0.2, 0.18, 0.17]",4,[],0.0,B7AmiGrF0VHtZKs,0,"[[0, 0, 0, 0, 0, 0], [0, 0, 0, 0, 0, 0], [0, 0, 0, 0, 0, 0], [0, 0, 0, 0, 0, 0]]",2,-11,-11,2,"[[40, -1, 19, 112, 19, 75], [47, -114, -98, -38, 13, 86], [-90, -72, -11, -87, 87, 65], [-102, 34, -87, 15, -12, 57]]",[],,,,test,3,75,3.1622776601683813
55,2978.0,204118,mouselab,False,"[0, 0, 0, 0, 0, 0]","[0.2, 0.3, 0.19, 0.31]",4,[],0.0,2O9UAcifjV8B4g6,0,"[[0, 0, 0, 0, 0, 0], [0, 0, 0, 0, 0, 0], [0, 0, 0, 0, 0, 0], [0, 0, 0, 0, 0, 0]]",0,26,26,3,"[[2, 30, -23, 26, 24, -26], [-77, 73, -11, 60, -57, 2], [-44, -40, -49, -44, 100, -98], [31, 24, -31, -144, -34, -8]]",[],,,,test,4,75,3.1622776601683813
55,2681.0,208374,mouselab,False,"[0, 0, 0, 0, 0, 0]","[0.14, 0.45, 0.05, 0.36]",4,[],0.0,l6dGWbHa5ETDOcj,0,"[[0, 0, 0, 0, 0, 0], [0, 0, 0, 0, 0, 0], [0, 0, 0, 0, 0, 0], [0, 0, 0, 0, 0, 0]]",0,44,44,1,"[[-85, 44, -96, -82, -36, 62], [-103, 20, 12, 8, 1, -43], [41, -70, 89, 62, 54, 43], [19, -133, -24, 127, 45, 36]]",[],,,,test,5,75,3.1622776601683813
55,2500.0,212621,mouselab,False,"[0, 0, 0, 0, 0, 0]","[0.4, 0.14, 0.2, 0.26]",4,[],0.0,6lht0ZurQP2rMOw,0,"[[0, 0, 0, 0, 0, 0], [0, 0, 0, 0, 0, 0], [0, 0, 0, 0, 0, 0], [0, 0, 0, 0, 0, 0]]",1,26,26,1,"[[-33, -36, -64, -39, -109, 24], [-9, 26, 36, 11, 43, 38], [61, -11, 147, 71, 140, 2], [13, -125, 64, -113, -76, 69]]",[],,,,test,6,75,3.1622776601683813
55,1390.0,215618,mouselab,False,"[0, 0, 0, 0, 0, 0]","[0.06, 0.31, 0.35, 0.28]",4,[],0.0,U6NalRd3JS7aHgM,0,"[[0, 0, 0, 0, 0, 0], [0, 0, 0, 0, 0, 0], [0, 0, 0, 0, 0, 0], [0, 0, 0, 0, 0, 0]]",1,14,14,2,"[[7, -95, 8, -33, 43, -148], [36, -62, 14, 74, 0, 49], [-64, -38, 68, 51, -33, -99], [-18, -90, 7, 63, -23, -100]]",[],,,,test,7,75,3.1622776601683813
55,1343.0,218798,mouselab,False,"[0, 0, 0, 0, 0, 0]","[0.3, 0.22, 0.08, 0.4]",4,[],0.0,iubSyA0EPXwngsD,0,"[[0, 0, 0, 0, 0, 0], [0, 0, 0, 0, 0, 0], [0, 0, 0, 0, 0, 0], [0, 0, 0, 0, 0, 0]]",3,-108,-108,3,"[[-96, -56, -98, 47, -66, 28], [14, -71, 27, 42, 25, -47], [-2, 87, 17, -40, 66, -69], [112, -22, -4, -108, -63, 30]]",[],,,,test,8,75,3.1622776601683813
55,2834.0,223734,mouselab,False,"[0, 0, 0, 0, 0, 0]","[0.15, 0.31, 0.28, 0.26]",4,[],0.0,KUyNdHbCfa4jtIt,0,"[[0, 0, 0, 0, 0, 0], [0, 0, 0, 0, 0, 0], [0, 0, 0, 0, 0, 0], [0, 0, 0, 0, 0, 0]]",1,-83,-83,1,"[[-51, -5, -21, 22, 85, -162], [116, -83, -48, -153, -19, -15], [-145, 63, 35, 42, -11, 57], [65, 89, -67, -6, 64, -24]]",[],,,,test,9,75,3.1622776601683813
55,5661.0,231422,mouselab,False,"[0, 0, 0, 0, 0, 0]","[0.05, 0.47, 0.28, 0.2]",4,[],0.0,KKfFP00BlY0FyTD,0,"[[0, 0, 0, 0, 0, 0], [0, 0, 0, 0, 0, 0], [0, 0, 0, 0, 0, 0], [0, 0, 0, 0, 0, 0]]",2,1,1,2,"[[-16, 29, 52, 15, -102, 114], [68, 33, 81, -31, 134, 13], [36, -22, 1, 47, 23, -38], [-171, -81, 65, 13, 28, -35]]",[],,,,test,10,75,3.1622776601683813
55,2713.0,235321,mouselab,False,"[0, 0, 0, 0, 0, 0]","[0.31, 0.14, 0.41, 0.14]",4,[],0.0,fNApTMMb9VDwixr,0,"[[0, 0, 0, 0, 0, 0], [0, 0, 0, 0, 0, 0], [0, 0, 0, 0, 0, 0], [0, 0, 0, 0, 0, 0]]",1,-77,-77,1,"[[-17, -40, -75, -19, -145, 57], [-60, -77, 11, -48, -57, 46], [65, 14, 45, 68, 43, -74], [-43, -100, 101, 144, 15, -52]]",[],,,,test,11,75,3.1622776601683813
55,2845.0,240478,mouselab,False,"[0, 0, 0, 0, 0, 0]","[0.31, 0.33, 0.09, 0.27]",4,[],0.0,aIfvrznIQLqTBd0,0,"[[0, 0, 0, 0, 0, 0], [0, 0, 0, 0, 0, 0], [0, 0, 0, 0, 0, 0], [0, 0, 0, 0, 0, 0]]",3,25,25,2,"[[82, 45, 5, -120, -5, -22], [-3, -132, 45, 78, 5, 2], [-12, -14, 14, -43, 10, 89], [-114, 72, 25, 56, 74, 101]]",[],,,,test,12,75,3.1622776601683813
55,1160.0,243082,mouselab,False,"[0, 0, 0, 0, 0, 0]","[0.25, 0.11, 0.47, 0.17]",4,[],0.0,f2xpn3YCjwjoU5x,0,"[[0, 0, 0, 0, 0, 0], [0, 0, 0, 0, 0, 0], [0, 0, 0, 0, 0, 0], [0, 0, 0, 0, 0, 0]]",3,56,56,3,"[[-22, -114, 79, 5, 92, -114], [-33, 60, -77, -61, 40, 174], [-71, 31, -34, -6, -5, 13], [-49, 92, 93, 56, 67, -111]]",[],,,,test,13,75,3.1622776601683813
55,1251.0,245774,mouselab,False,"[0, 0, 0, 0, 0, 0]","[0.19, 0.51, 0.1, 0.2]",4,[],0.0,B9PWF5Bu1hHzIBA,0,"[[0, 0, 0, 0, 0, 0], [0, 0, 0, 0, 0, 0], [0, 0, 0, 0, 0, 0], [0, 0, 0, 0, 0, 0]]",1,3,3,4,"[[87, 10, 22, -15, 44, 161], [93, 107, -71, -46, 3, 182], [-167, 82, -41, 30, -43, -5], [127, 73, -100, -78, 2, -23]]",[],,,,test,14,75,3.1622776601683813
55,2708.0,250068,mouselab,False,"[0, 0, 0, 0, 0, 0]","[0.48, 0.25, 0.24, 0.03]",4,[],0.0,SaPACZPUDlvdmkP,0,"[[0, 0, 0, 0, 0, 0], [0, 0, 0, 0, 0, 0], [0, 0, 0, 0, 0, 0], [0, 0, 0, 0, 0, 0]]",2,12,12,0,"[[11, -192, -3, -131, 0, 63], [99, -2, -149, 65, -106, 101], [12, -17, -175, -95, 44, -177], [15, -23, -34, 84, -149, 28]]",[],,,,test,15,75,3.1622776601683813
55,2708.0,254149,mouselab,False,"[0, 0, 0, 0, 0, 0]","[0.08000000000000002, 0.33, 0.16, 0.43]",4,[],0.0,X1an3is3yUOfCuZ,0,"[[0, 0, 0, 0, 0, 0], [0, 0, 0, 0, 0, 0], [0, 0, 0, 0, 0, 0], [0, 0, 0, 0, 0, 0]]",3,115,115,1,"[[11, 127, 163, 10, -12, 60], [-29, 43, 18, 65, 3, -22], [-22, -34, 11, -101, 22, 34], [-98, 115, -44, -8, 33, -7]]",[],,,,test,16,75,3.1622776601683813
55,1275.0,256809,mouselab,False,"[0, 0, 0, 0, 0, 0]","[0.3, 0.28, 0.07, 0.35]",4,[],0.0,uosTR7R5rWOZ2TL,0,"[[0, 0, 0, 0, 0, 0], [0, 0, 0, 0, 0, 0], [0, 0, 0, 0, 0, 0], [0, 0, 0, 0, 0, 0]]",3,60,60,1,"[[-9, -78, -36, -68, -82, 62], [135, -24, -85, -12, 1, -37], [-114, 88, -33, 158, -29, -49], [34, 60, -124, 8, -30, 180]]",[],,,,test,17,75,3.1622776601683813
55,1260.0,259437,mouselab,False,"[0, 0, 0, 0, 0, 0]","[0.15, 0.13, 0.43, 0.29]",4,[],0.0,aA237K2hoPccOCz,0,"[[0, 0, 0, 0, 0, 0], [0, 0, 0, 0, 0, 0], [0, 0, 0, 0, 0, 0], [0, 0, 0, 0, 0, 0]]",2,54,54,2,"[[1, 65, 8, 6, 47, 37], [23, -138, 57, 1, -97, -73], [-83, -200, 54, 89, 118, -117], [-32, 87, 70, -56, -19, -5]]",[],,,,test,18,75,3.1622776601683813
55,2424.0,263354,mouselab,False,"[0, 0, 0, 0, 0, 0]","[0.1, 0.54, 0.15, 0.21]",4,[],0.0,aYhiKG1buBq3xGu,0,"[[0, 0, 0, 0, 0, 0], [0, 0, 0, 0, 0, 0], [0, 0, 0, 0, 0, 0], [0, 0, 0, 0, 0, 0]]",2,21,21,3,"[[11, 99, 37, 96, -15, -10], [-102, 110, 161, -24, -71, 37], [-55, 8, 9, 21, 70, 82], [-34, -16, 17, 136, 62, 150]]",[],,,,test,19,75,3.1622776601683813
26,28330.0,54946,mouselab,True,"[0, 0, 0, 0, 0, 0]","[0.16, 0.19, 0.14, 0.51]",4,[],20.0,X12BTfukFos6kXf,0,"[[0, 0, 0, 0, 0, 0], [0, 0, 0, 0, 0, 0], [0, 0, 0, 0, 0, 0], [0, 0, 0, 0, 0, 0]]",1,25,25,0,"[[7, -35, -215, 120, 66, 61], [25, 127, -118, -78, -113, -87], [141, 21, -58, -44, 57, 72], [39, -44, -105, -76, -59, 146]]",[],,,,instruct1,0,75,3.1622776601683813
26,25595.0,86720,mouselab,True,"[0, 0, 0, 0, 0, 0]","[0.23, 0.2, 0.41, 0.16]",4,[],20.0,q2A1Z7ZePsS6Nvy,0,"[[0, 0, 0, 0, 0, 0], [0, 0, 0, 0, 0, 0], [0, 0, 0, 0, 0, 0], [0, 0, 0, 0, 0, 0]]",0,-102,-102,2,"[[-84, 0, -102, -86, 110, 1], [-45, 33, -18, -17, -58, -62], [60, -70, 0, 25, 84, -28], [-29, -156, -38, 156, -62, -4]]",[],,,,instruct1,1,75,3.1622776601683813
26,14835.0,105537,mouselab,True,"[0, 0, 0, 0, 0, 0]","[0.21, 0.18, 0.04, 0.57]",4,[],20.0,EeEorZ4EuC60csv,0,"[[0, 0, 0, 0, 0, 0], [0, 0, 0, 0, 0, 0], [0, 0, 0, 0, 0, 0], [0, 0, 0, 0, 0, 0]]",1,37,37,5,"[[57, 100, -110, 45, -81, -56], [42, -104, 14, -55, -16, 37], [16, -15, 45, -72, -145, -24], [158, 10, -23, 60, -73, 5]]",[],,,,instruct1,2,75,3.1622776601683813
26,13648.0,269175,mouselab,True,"[0, 0, 0, 0, 0, 0]","[0.19, 0.18, 0.38, 0.25]",4,[],20.0,NouMBuG9exsqUGl,0,"[[0, 0, 0, 0, 0, 0], [0, 0, 0, 0, 0, 0], [0, 0, 0, 0, 0, 0], [0, 0, 0, 0, 0, 0]]",2,82,82,4,"[[56, 16, 62, -42, 150, 1], [182, -46, 1, 48, 183, 30], [-161, -40, -103, -188, 82, 15], [127, -40, -47, 106, 0, -104]]",[],,,,instruct2,0,75,3.1622776601683813
26,12906.0,284863,mouselab,True,"[0, 0, 0, 0, 0, 0]","[0.2, 0.13, 0.32, 0.35]",4,[],20.0,dKP45ICu0Osq80X,0,"[[0, 0, 0, 0, 0, 0], [0, 0, 0, 0, 0, 0], [0, 0, 0, 0, 0, 0], [0, 0, 0, 0, 0, 0]]",3,68,68,5,"[[-34, -12, -1, -7, -31, 7], [-66, 35, -53, -30, 90, 101], [5, 46, -4, -162, 142, 173], [4, -92, -93, -20, 31, 68]]",[],dominating,,,instruct2,1,75,3.1622776601683813
26,22437.0,311916,mouselab,True,"[0, 0, 0, 0, 0, 0]","[0.3699999999999999, 0.14, 0.33, 0.16]",4,[],20.0,ZWVbJxG8rjB5il8,0,"[[0, 0, 0, 0, 0, 0], [0, 0, 0, 0, 0, 0], [0, 0, 0, 0, 0, 0], [0, 0, 0, 0, 0, 0]]",2,39,39,2,"[[18, -10, 203, -7, 46, -17], [7, 108, -136, -213, 101, -93], [20, 79, 39, 35, 4, -9], [-5, 15, 16, -5, -90, -23]]",[],,,,instruct2,2,75,3.1622776601683813
26,82925.0,409444,mouselab,True,"[-13, -41, -7, 3, 36, 15]","[0.27, 0.19, 0.18, 0.36]",4,"[61490, 63830, 66757, 75915, 78586, 80423]",20.0,I5b0PAbIlpxRoZM,24,"[[0, 0, 0, 0, 0, 0], [0, 0, 0, 0, 0, 0], [0, 0, 0, 0, 0, 0], [-36, -113, -20, 7, 100, 42]]",2,-59,-83,4,"[[67, -83, -38, -12, -151, -19], [77, 40, 1, -130, 42, -33], [-67, 181, -35, -84, -59, -65], [-36, -113, -20, 7, 100, 42]]","[18, 19, 20, 21, 22, 23]",,,,instruct3,0,75,3.1622776601683813
26,29449.0,444843,mouselab,True,"[0, 0, 0, 0, 0, 0]","[0.26, 0.3, 0.11, 0.33]",4,"[13180, 15438, 16807]",20.0,u7IBgyHnuPo3z1t,12,"[[-64, 0, 0, 0, 0, 0], [45, 0, 0, 0, 0, 0], [0, 0, 0, 0, 0, 0], [10, 0, 0, 0, 0, 0]]",0,-64,-76,0,"[[-64, -39, -57, -32, -95, 22], [45, 60, 117, 8, -91, -4], [64, 49, 28, -54, 6, -79], [10, 90, -49, 49, -91, -87]]","[0, 6, 18]",,,,instruct3,1,75,3.1622776601683813
26,21136.0,469646,mouselab,True,"[26, -14, 30, 0, 0, 0]","[0.09, 0.14, 0.43, 0.34]",4,"[5218, 7081, 8713, 9741, 14280, 15168]",20.0,dfucN9SrzSSRDqJ,24,"[[0, 0, 0, 0, 0, 0], [0, 0, 0, 0, 0, 0], [65, 66, 81, 0, 0, 0], [-7, -124, -14, 0, 0, 0]]",1,76,52,0,"[[0, 100, 41, 42, -7, -82], [76, 56, 92, 14, 4, -113], [65, 66, 81, -21, -21, -30], [-7, -124, -14, 17, 23, 54]]","[12, 18, 19, 13, 14, 20]",,,,instruct3,2,75,3.1622776601683813
26,23327.0,521458,mouselab,True,"[10, 0, 0, 0, 0, 0]","[0.29, 0.22, 0.26, 0.23]",4,"[4872, 6827]",20.0,tK9NSXZJXL2a1DM,8,"[[27, 0, 0, 0, 0, 0], [0, 0, 0, 0, 0, 0], [9, 0, 0, 0, 0, 0], [0, 0, 0, 0, 0, 0]]",2,9,1,0,"[[27, -53, -32, -18, 75, 68], [29, 3, 15, 149, -146, 2], [9, 32, -68, 54, -108, -104], [98, 31, 97, 8, -114, -101]]","[0, 12]",,,,test,0,75,3.1622776601683813
26,21029.0,545701,mouselab,True,"[-7, -8, 0, 0, 0, 0]","[0.23, 0.32, 0.29, 0.16]",4,"[10520, 13119, 16116]",20.0,HO2m16im97e1RLZ,12,"[[-50, 0, 0, 0, 0, 0], [13, -25, 0, 0, 0, 0], [0, 0, 0, 0, 0, 0], [0, 0, 0, 0, 0, 0]]",0,-50,-62,0,"[[-50, 10, -163, 57, 26, 95], [13, -25, 81, 4, -24, -10], [-85, 19, -88, 37, -86, 5], [-41, 47, 116, -1, -4, -34]]","[6, 0, 7]",,,,test,1,75,3.1622776601683813
26,20627.0,568551,mouselab,True,"[62, 0, 0, 0, 0, 0]","[0.13, 0.2, 0.22, 0.45]",4,[9740],20.0,8EHleEowa3Bcw0G,4,"[[0, 0, 0, 0, 0, 0], [0, 0, 0, 0, 0, 0], [0, 0, 0, 0, 0, 0], [138, 0, 0, 0, 0, 0]]",1,-18,-22,0,"[[59, -89, 21, -2, 37, 133], [-18, -27, 46, 2, -14, -42], [59, -48, -70, -34, 54, 132], [138, -20, 55, -19, -23, -19]]",[18],,,,test,2,75,3.1622776601683813
26,21752.0,596995,mouselab,True,"[18, 0, 0, 0, 0, 0]","[0.45, 0.2, 0.18, 0.17]",4,[2691],20.0,B7AmiGrF0VHtZKs,4,"[[40, 0, 0, 0, 0, 0], [0, 0, 0, 0, 0, 0], [0, 0, 0, 0, 0, 0], [0, 0, 0, 0, 0, 0]]",2,-90,-94,0,"[[40, -1, 19, 112, 19, 75], [47, -114, -98, -38, 13, 86], [-90, -72, -11, -87, 87, 65], [-102, 34, -87, 15, -12, 57]]",[0],,,,test,3,75,3.1622776601683813
26,21408.0,620494,mouselab,True,"[10, 0, -3, 0, -11, 1]","[0.2, 0.3, 0.19, 0.31]",4,"[9625, 11182, 13940, 15482]",20.0,2O9UAcifjV8B4g6,16,"[[0, 0, 0, 0, 0, 0], [0, 0, -11, 0, 0, 2], [0, 0, 0, 0, 0, 0], [31, 0, 0, 0, -34, 0]]",0,2,-14,0,"[[2, 30, -23, 26, 24, -26], [-77, 73, -11, 60, -57, 2], [-44, -40, -49, -44, 100, -98], [31, 24, -31, -144, -34, -8]]","[11, 22, 8, 18]",,,,test,4,75,3.1622776601683813
26,21941.0,644845,mouselab,True,"[-46, -39, 0, 4, 0, 0]","[0.14, 0.45, 0.05, 0.36]",4,"[8395, 10317, 13872, 19746]",20.0,l6dGWbHa5ETDOcj,16,"[[0, 0, 0, 0, 0, 0], [-103, 20, 0, 8, 0, 0], [0, 0, 0, 0, 0, 0], [0, -133, 0, 0, 0, 0]]",3,127,111,3,"[[-85, 44, -96, -82, -36, 62], [-103, 20, 12, 8, 1, -43], [41, -70, 89, 62, 54, 43], [19, -133, -24, 127, 45, 36]]","[9, 7, 6, 19]",,,,test,5,75,3.1622776601683813
26,21044.0,667920,mouselab,True,"[-13, 0, 0, -16, 0, 10]","[0.4, 0.14, 0.2, 0.26]",4,"[7570, 9910, 11554]",20.0,6lht0ZurQP2rMOw,12,"[[-33, 0, 0, -39, 0, 24], [0, 0, 0, 0, 0, 0], [0, 0, 0, 0, 0, 0], [0, 0, 0, 0, 0, 0]]",2,2,-10,5,"[[-33, -36, -64, -39, -109, 24], [-9, 26, 36, 11, 43, 38], [61, -11, 147, 71, 140, 2], [13, -125, 64, -113, -76, 69]]","[0, 5, 3]",,,,test,6,75,3.1622776601683813
26,21652.0,692812,mouselab,True,"[-22, -19, 24, 0, 0, 0]","[0.06, 0.31, 0.35, 0.28]",4,"[16779, 18055, 19353]",20.0,U6NalRd3JS7aHgM,12,"[[0, 0, 0, 0, 0, 0], [0, -62, 0, 0, 0, 0], [-64, 0, 68, 0, 0, 0], [0, 0, 0, 0, 0, 0]]",2,68,56,2,"[[7, -95, 8, -33, 43, -148], [36, -62, 14, 74, 0, 49], [-64, -38, 68, 51, -33, -99], [-18, -90, 7, 63, -23, -100]]","[12, 7, 14]",,,,test,7,75,3.1622776601683813
26,20835.0,715793,mouselab,True,"[19, 0, 0, 0, 0, 0]","[0.3, 0.22, 0.08, 0.4]",4,"[5938, 8217, 10562]",20.0,iubSyA0EPXwngsD,12,"[[-96, 0, 0, 0, 0, 0], [14, 0, 0, 0, 0, 0], [0, 0, 0, 0, 0, 0], [112, 0, 0, 0, 0, 0]]",0,-96,-108,0,"[[-96, -56, -98, 47, -66, 28], [14, -71, 27, 42, 25, -47], [-2, 87, 17, -40, 66, -69], [112, -22, -4, -108, -63, 30]]","[18, 0, 6]",,,,test,8,75,3.1622776601683813
26,20787.0,738504,mouselab,True,"[12, 0, 0, 0, 0, 0]","[0.15, 0.31, 0.28, 0.26]",4,"[4000, 7147, 8518]",20.0,KUyNdHbCfa4jtIt,12,"[[0, 0, 0, 0, 0, 0], [116, 0, 0, 0, 0, 0], [-145, 0, 0, 0, 0, 0], [65, 0, 0, 0, 0, 0]]",3,65,53,0,"[[-51, -5, -21, 22, 85, -162], [116, -83, -48, -153, -19, -15], [-145, 63, 35, 42, -11, 57], [65, 89, -67, -6, 64, -24]]","[6, 12, 18]",,,,test,9,75,3.1622776601683813
26,21174.0,762215,mouselab,True,"[42, 0, 0, 0, 0, 0]","[0.05, 0.47, 0.28, 0.2]",4,"[3011, 6329]",20.0,KKfFP00BlY0FyTD,8,"[[0, 0, 0, 0, 0, 0], [68, 0, 0, 0, 0, 0], [36, 0, 0, 0, 0, 0], [0, 0, 0, 0, 0, 0]]",2,36,28,0,"[[-16, 29, 52, 15, -102, 114], [68, 33, 81, -31, 134, 13], [36, -22, 1, 47, 23, -38], [-171, -81, 65, 13, 28, -35]]","[6, 12]",,,,test,10,75,3.1622776601683813
26,20725.0,785088,mouselab,True,"[21, 0, -23, 0, 0, -30]","[0.31, 0.14, 0.41, 0.14]",4,"[5651, 7401, 10710, 12577]",20.0,fNApTMMb9VDwixr,16,"[[-17, 0, -75, 0, 0, 0], [0, 0, 0, 0, 0, 0], [65, 0, 0, 0, 0, -74], [0, 0, 0, 0, 0, 0]]",1,-60,-76,0,"[[-17, -40, -75, -19, -145, 57], [-60, -77, 11, -48, -57, 46], [65, 14, 45, 68, 43, -74], [-43, -100, 101, 144, 15, -52]]","[17, 12, 0, 2]",,,,test,11,75,3.1622776601683813
26,35899.0,824459,mouselab,True,"[-1, -30, 16, 0, 0, 0]","[0.31, 0.33, 0.09, 0.27]",4,"[24397, 26099, 27921, 30383, 31620]",20.0,aIfvrznIQLqTBd0,20,"[[0, 45, 5, 0, 0, 0], [-3, -132, 45, 0, 0, 0], [0, 0, 0, 0, 0, 0], [0, 0, 0, 0, 0, 0]]",1,45,25,2,"[[82, 45, 5, -120, -5, -22], [-3, -132, 45, 78, 5, 2], [-12, -14, 14, -43, 10, 89], [-114, 72, 25, 56, 74, 101]]","[6, 1, 7, 8, 2]",,,,test,12,75,3.1622776601683813
26,20903.0,847519,mouselab,True,"[-33, 15, -16, -3, 0, 0]","[0.25, 0.11, 0.47, 0.17]",4,"[4696, 6507, 9754, 11335]",20.0,f2xpn3YCjwjoU5x,16,"[[0, 0, 0, 0, 0, 0], [0, 0, 0, 0, 0, 0], [-71, 31, -34, -6, 0, 0], [0, 0, 0, 0, 0, 0]]",2,31,15,1,"[[-22, -114, 79, 5, 92, -114], [-33, 60, -77, -61, 40, 174], [-71, 31, -34, -6, -5, 13], [-49, 92, 93, 56, 67, -111]]","[12, 13, 14, 15]",,,,test,13,75,3.1622776601683813
26,21600.0,871553,mouselab,True,"[47, 0, 0, 0, 0, 0]","[0.19, 0.51, 0.1, 0.2]",4,[4807],20.0,B9PWF5Bu1hHzIBA,4,"[[0, 0, 0, 0, 0, 0], [93, 0, 0, 0, 0, 0], [0, 0, 0, 0, 0, 0], [0, 0, 0, 0, 0, 0]]",0,87,83,0,"[[87, 10, 22, -15, 44, 161], [93, 107, -71, -46, 3, 182], [-167, 82, -41, 30, -43, -5], [127, 73, -100, -78, 2, -23]]",[6],,,,test,14,75,3.1622776601683813
26,20977.0,895171,mouselab,True,"[5, -92, -1, -63, 0, 30]","[0.48, 0.25, 0.24, 0.03]",4,"[4224, 7710, 9218, 10667, 12083, 12986]",20.0,SaPACZPUDlvdmkP,24,"[[11, -192, -3, -131, 0, 63], [0, 0, 0, 0, 0, 0], [0, 0, 0, 0, 0, 0], [0, 0, 0, 0, 0, 0]]",0,63,39,5,"[[11, -192, -3, -131, 0, 63], [99, -2, -149, 65, -106, 101], [12, -17, -175, -95, 44, -177], [15, -23, -34, 84, -149, 28]]","[1, 0, 3, 2, 5, 4]",,,,test,15,75,3.1622776601683813
26,21323.0,919071,mouselab,True,"[-42, 64, 0, 0, 0, 0]","[0.08000000000000002, 0.33, 0.16, 0.43]",4,"[5530, 6893, 8233]",20.0,X1an3is3yUOfCuZ,12,"[[0, 0, 0, 0, 0, 0], [0, 43, 0, 0, 0, 0], [0, 0, 0, 0, 0, 0], [-98, 115, 0, 0, 0, 0]]",3,115,103,1,"[[11, 127, 163, 10, -12, 60], [-29, 43, 18, 65, 3, -22], [-22, -34, 11, -101, 22, 34], [-98, 115, -44, -8, 33, -7]]","[18, 7, 19]",,,,test,16,75,3.1622776601683813
26,21651.0,943776,mouselab,True,"[50, 0, -43, 0, 0, 0]","[0.3, 0.28, 0.07, 0.35]",4,"[13936, 15591, 17198]",20.0,uosTR7R5rWOZ2TL,12,"[[0, 0, 0, 0, 0, 0], [135, 0, 0, 0, 0, 0], [0, 0, 0, 0, 0, 0], [34, 0, -124, 0, 0, 0]]",1,135,123,0,"[[-9, -78, -36, -68, -82, 62], [135, -24, -85, -12, 1, -37], [-114, 88, -33, 158, -29, -49], [34, 60, -124, 8, -30, 180]]","[20, 18, 6]",,,,test,17,75,3.1622776601683813
26,21266.0,967576,mouselab,True,"[-36, 0, 23, 0, 51, 0]","[0.15, 0.13, 0.43, 0.29]",4,"[5717, 7399, 9104]",20.0,aA237K2hoPccOCz,12,"[[0, 0, 0, 0, 0, 0], [0, 0, 0, 0, 0, 0], [-83, 0, 54, 0, 118, 0], [0, 0, 0, 0, 0, 0]]",3,-19,-31,4,"[[1, 65, 8, 6, 47, 37], [23, -138, 57, 1, -97, -73], [-83, -200, 54, 89, 118, -117], [-32, 87, 70, -56, -19, -5]]","[12, 14, 16]",,,,test,18,75,3.1622776601683813
26,20808.0,995402,mouselab,True,"[0, 59, 0, 0, 0, 0]","[0.1, 0.54, 0.15, 0.21]",4,[4498],20.0,aYhiKG1buBq3xGu,4,"[[0, 0, 0, 0, 0, 0], [0, 110, 0, 0, 0, 0], [0, 0, 0, 0, 0, 0], [0, 0, 0, 0, 0, 0]]",1,110,106,1,"[[11, 99, 37, 96, -15, -10], [-102, 110, 161, -24, -71, 37], [-55, 8, 9, 21, 70, 82], [-34, -16, 17, 136, 62, 150]]",[7],,,,test,19,75,3.1622776601683813
34,36415.0,121744,mouselab,False,"[0, 0, 0, 0, 0, 0]","[0.16, 0.19, 0.14, 0.51]",1,[],0.0,X12BTfukFos6kXf,0,"[[0, 0, 0, 0, 0, 0], [0, 0, 0, 0, 0, 0], [0, 0, 0, 0, 0, 0], [0, 0, 0, 0, 0, 0]]",3,39,39,0,"[[7, -35, -215, 120, 66, 61], [25, 127, -118, -78, -113, -87], [141, 21, -58, -44, 57, 72], [39, -44, -105, -76, -59, 146]]",[],,,,instruct1,0,75,3.1622776601683813
34,11687.0,140511,mouselab,False,"[0, 0, 0, 0, 0, 0]","[0.23, 0.2, 0.41, 0.16]",1,[],0.0,q2A1Z7ZePsS6Nvy,0,"[[0, 0, 0, 0, 0, 0], [0, 0, 0, 0, 0, 0], [0, 0, 0, 0, 0, 0], [0, 0, 0, 0, 0, 0]]",1,-17,-17,3,"[[-84, 0, -102, -86, 110, 1], [-45, 33, -18, -17, -58, -62], [60, -70, 0, 25, 84, -28], [-29, -156, -38, 156, -62, -4]]",[],,,,instruct1,1,75,3.1622776601683813
34,3737.0,148479,mouselab,False,"[0, 0, 0, 0, 0, 0]","[0.21, 0.18, 0.04, 0.57]",1,[],0.0,EeEorZ4EuC60csv,0,"[[0, 0, 0, 0, 0, 0], [0, 0, 0, 0, 0, 0], [0, 0, 0, 0, 0, 0], [0, 0, 0, 0, 0, 0]]",0,57,57,0,"[[57, 100, -110, 45, -81, -56], [42, -104, 14, -55, -16, 37], [16, -15, 45, -72, -145, -24], [158, 10, -23, 60, -73, 5]]",[],,,,instruct1,2,75,3.1622776601683813
34,6528.0,435709,mouselab,False,"[0, 0, 0, 0, 0, 0]","[0.19, 0.18, 0.38, 0.25]",1,[],0.0,NouMBuG9exsqUGl,0,"[[0, 0, 0, 0, 0, 0], [0, 0, 0, 0, 0, 0], [0, 0, 0, 0, 0, 0], [0, 0, 0, 0, 0, 0]]",2,-161,-161,0,"[[56, 16, 62, -42, 150, 1], [182, -46, 1, 48, 183, 30], [-161, -40, -103, -188, 82, 15], [127, -40, -47, 106, 0, -104]]",[],,,,instruct2,0,75,3.1622776601683813
34,2233.0,439933,mouselab,False,"[0, 0, 0, 0, 0, 0]","[0.2, 0.13, 0.32, 0.35]",1,[],0.0,dKP45ICu0Osq80X,0,"[[0, 0, 0, 0, 0, 0], [0, 0, 0, 0, 0, 0], [0, 0, 0, 0, 0, 0], [0, 0, 0, 0, 0, 0]]",3,68,68,5,"[[-34, -12, -1, -7, -31, 7], [-66, 35, -53, -30, 90, 101], [5, 46, -4, -162, 142, 173], [4, -92, -93, -20, 31, 68]]",[],dominating,,,instruct2,1,75,3.1622776601683813
34,4521.0,446365,mouselab,False,"[0, 0, 0, 0, 0, 0]","[0.3699999999999999, 0.14, 0.33, 0.16]",1,[],0.0,ZWVbJxG8rjB5il8,0,"[[0, 0, 0, 0, 0, 0], [0, 0, 0, 0, 0, 0], [0, 0, 0, 0, 0, 0], [0, 0, 0, 0, 0, 0]]",3,15,15,1,"[[18, -10, 203, -7, 46, -17], [7, 108, -136, -213, 101, -93], [20, 79, 39, 35, 4, -9], [-5, 15, 16, -5, -90, -23]]",[],,,,instruct2,2,75,3.1622776601683813
34,2280.0,451109,mouselab,False,"[0, 0, 0, 0, 0, 0]","[0.27, 0.19, 0.18, 0.36]",1,[],0.0,I5b0PAbIlpxRoZM,0,"[[0, 0, 0, 0, 0, 0], [0, 0, 0, 0, 0, 0], [0, 0, 0, 0, 0, 0], [0, 0, 0, 0, 0, 0]]",0,-38,-38,2,"[[67, -83, -38, -12, -151, -19], [77, 40, 1, -130, 42, -33], [-67, 181, -35, -84, -59, -65], [-36, -113, -20, 7, 100, 42]]",[],,,,instruct3,0,75,3.1622776601683813
34,2592.0,456717,mouselab,False,"[0, 0, 0, 0, 0, 0]","[0.26, 0.3, 0.11, 0.33]",1,[],0.0,u7IBgyHnuPo3z1t,0,"[[0, 0, 0, 0, 0, 0], [0, 0, 0, 0, 0, 0], [0, 0, 0, 0, 0, 0], [0, 0, 0, 0, 0, 0]]",1,45,45,0,"[[-64, -39, -57, -32, -95, 22], [45, 60, 117, 8, -91, -4], [64, 49, 28, -54, 6, -79], [10, 90, -49, 49, -91, -87]]",[],,,,instruct3,1,75,3.1622776601683813
34,2337.0,461652,mouselab,False,"[0, 0, 0, 0, 0, 0]","[0.09, 0.14, 0.43, 0.34]",1,[],0.0,dfucN9SrzSSRDqJ,0,"[[0, 0, 0, 0, 0, 0], [0, 0, 0, 0, 0, 0], [0, 0, 0, 0, 0, 0], [0, 0, 0, 0, 0, 0]]",2,-21,-21,3,"[[0, 100, 41, 42, -7, -82], [76, 56, 92, 14, 4, -113], [65, 66, 81, -21, -21, -30], [-7, -124, -14, 17, 23, 54]]",[],,,,instruct3,2,75,3.1622776601683813
34,1153.0,466868,mouselab,False,"[0, 0, 0, 0, 0, 0]","[0.29, 0.22, 0.26, 0.23]",1,[],0.0,tK9NSXZJXL2a1DM,0,"[[0, 0, 0, 0, 0, 0], [0, 0, 0, 0, 0, 0], [0, 0, 0, 0, 0, 0], [0, 0, 0, 0, 0, 0]]",2,9,9,0,"[[27, -53, -32, -18, 75, 68], [29, 3, 15, 149, -146, 2], [9, 32, -68, 54, -108, -104], [98, 31, 97, 8, -114, -101]]",[],,,,test,0,75,3.1622776601683813
34,1234.0,470221,mouselab,False,"[0, 0, 0, 0, 0, 0]","[0.23, 0.32, 0.29, 0.16]",1,[],0.0,HO2m16im97e1RLZ,0,"[[0, 0, 0, 0, 0, 0], [0, 0, 0, 0, 0, 0], [0, 0, 0, 0, 0, 0], [0, 0, 0, 0, 0, 0]]",0,57,57,3,"[[-50, 10, -163, 57, 26, 95], [13, -25, 81, 4, -24, -10], [-85, 19, -88, 37, -86, 5], [-41, 47, 116, -1, -4, -34]]",[],,,,test,1,75,3.1622776601683813
34,2672.0,474940,mouselab,False,"[0, 0, 0, 0, 0, 0]","[0.13, 0.2, 0.22, 0.45]",1,[],0.0,8EHleEowa3Bcw0G,0,"[[0, 0, 0, 0, 0, 0], [0, 0, 0, 0, 0, 0], [0, 0, 0, 0, 0, 0], [0, 0, 0, 0, 0, 0]]",2,132,132,5,"[[59, -89, 21, -2, 37, 133], [-18, -27, 46, 2, -14, -42], [59, -48, -70, -34, 54, 132], [138, -20, 55, -19, -23, -19]]",[],,,,test,2,75,3.1622776601683813
34,2081.0,479005,mouselab,False,"[0, 0, 0, 0, 0, 0]","[0.45, 0.2, 0.18, 0.17]",1,[],0.0,B7AmiGrF0VHtZKs,0,"[[0, 0, 0, 0, 0, 0], [0, 0, 0, 0, 0, 0], [0, 0, 0, 0, 0, 0], [0, 0, 0, 0, 0, 0]]",0,112,112,3,"[[40, -1, 19, 112, 19, 75], [47, -114, -98, -38, 13, 86], [-90, -72, -11, -87, 87, 65], [-102, 34, -87, 15, -12, 57]]",[],,,,test,3,75,3.1622776601683813
34,1968.0,482892,mouselab,False,"[0, 0, 0, 0, 0, 0]","[0.2, 0.3, 0.19, 0.31]",1,[],0.0,2O9UAcifjV8B4g6,0,"[[0, 0, 0, 0, 0, 0], [0, 0, 0, 0, 0, 0], [0, 0, 0, 0, 0, 0], [0, 0, 0, 0, 0, 0]]",3,-34,-34,4,"[[2, 30, -23, 26, 24, -26], [-77, 73, -11, 60, -57, 2], [-44, -40, -49, -44, 100, -98], [31, 24, -31, -144, -34, -8]]",[],,,,test,4,75,3.1622776601683813
34,2352.0,487588,mouselab,False,"[0, 0, 0, 0, 0, 0]","[0.14, 0.45, 0.05, 0.36]",1,[],0.0,l6dGWbHa5ETDOcj,0,"[[0, 0, 0, 0, 0, 0], [0, 0, 0, 0, 0, 0], [0, 0, 0, 0, 0, 0], [0, 0, 0, 0, 0, 0]]",3,-133,-133,1,"[[-85, 44, -96, -82, -36, 62], [-103, 20, 12, 8, 1, -43], [41, -70, 89, 62, 54, 43], [19, -133, -24, 127, 45, 36]]",[],,,,test,5,75,3.1622776601683813
34,2000.0,491580,mouselab,False,"[0, 0, 0, 0, 0, 0]","[0.4, 0.14, 0.2, 0.26]",1,[],0.0,6lht0ZurQP2rMOw,0,"[[0, 0, 0, 0, 0, 0], [0, 0, 0, 0, 0, 0], [0, 0, 0, 0, 0, 0], [0, 0, 0, 0, 0, 0]]",1,43,43,4,"[[-33, -36, -64, -39, -109, 24], [-9, 26, 36, 11, 43, 38], [61, -11, 147, 71, 140, 2], [13, -125, 64, -113, -76, 69]]",[],,,,test,6,75,3.1622776601683813
34,1335.0,494477,mouselab,False,"[0, 0, 0, 0, 0, 0]","[0.06, 0.31, 0.35, 0.28]",1,[],0.0,U6NalRd3JS7aHgM,0,"[[0, 0, 0, 0, 0, 0], [0, 0, 0, 0, 0, 0], [0, 0, 0, 0, 0, 0], [0, 0, 0, 0, 0, 0]]",2,-99,-99,5,"[[7, -95, 8, -33, 43, -148], [36, -62, 14, 74, 0, 49], [-64, -38, 68, 51, -33, -99], [-18, -90, 7, 63, -23, -100]]",[],,,,test,7,75,3.1622776601683813
34,3208.0,499492,mouselab,False,"[0, 0, 0, 0, 0, 0]","[0.3, 0.22, 0.08, 0.4]",1,[],0.0,iubSyA0EPXwngsD,0,"[[0, 0, 0, 0, 0, 0], [0, 0, 0, 0, 0, 0], [0, 0, 0, 0, 0, 0], [0, 0, 0, 0, 0, 0]]",3,112,112,0,"[[-96, -56, -98, 47, -66, 28], [14, -71, 27, 42, 25, -47], [-2, 87, 17, -40, 66, -69], [112, -22, -4, -108, -63, 30]]",[],,,,test,8,75,3.1622776601683813
34,1945.0,503164,mouselab,False,"[0, 0, 0, 0, 0, 0]","[0.15, 0.31, 0.28, 0.26]",1,[],0.0,KUyNdHbCfa4jtIt,0,"[[0, 0, 0, 0, 0, 0], [0, 0, 0, 0, 0, 0], [0, 0, 0, 0, 0, 0], [0, 0, 0, 0, 0, 0]]",0,-5,-5,1,"[[-51, -5, -21, 22, 85, -162], [116, -83, -48, -153, -19, -15], [-145, 63, 35, 42, -11, 57], [65, 89, -67, -6, 64, -24]]",[],,,,test,9,75,3.1622776601683813
34,3512.0,510284,mouselab,False,"[0, 0, 0, 0, 0, 0]","[0.05, 0.47, 0.28, 0.2]",1,[],0.0,KKfFP00BlY0FyTD,0,"[[0, 0, 0, 0, 0, 0], [0, 0, 0, 0, 0, 0], [0, 0, 0, 0, 0, 0], [0, 0, 0, 0, 0, 0]]",3,13,13,3,"[[-16, 29, 52, 15, -102, 114], [68, 33, 81, -31, 134, 13], [36, -22, 1, 47, 23, -38], [-171, -81, 65, 13, 28, -35]]",[],,,,test,10,75,3.1622776601683813
34,2304.0,515420,mouselab,False,"[0, 0, 0, 0, 0, 0]","[0.31, 0.14, 0.41, 0.14]",1,[],0.0,fNApTMMb9VDwixr,0,"[[0, 0, 0, 0, 0, 0], [0, 0, 0, 0, 0, 0], [0, 0, 0, 0, 0, 0], [0, 0, 0, 0, 0, 0]]",0,-145,-145,4,"[[-17, -40, -75, -19, -145, 57], [-60, -77, 11, -48, -57, 46], [65, 14, 45, 68, 43, -74], [-43, -100, 101, 144, 15, -52]]",[],,,,test,11,75,3.1622776601683813
34,2697.0,519836,mouselab,False,"[0, 0, 0, 0, 0, 0]","[0.31, 0.33, 0.09, 0.27]",1,[],0.0,aIfvrznIQLqTBd0,0,"[[0, 0, 0, 0, 0, 0], [0, 0, 0, 0, 0, 0], [0, 0, 0, 0, 0, 0], [0, 0, 0, 0, 0, 0]]",1,-3,-3,0,"[[82, 45, 5, -120, -5, -22], [-3, -132, 45, 78, 5, 2], [-12, -14, 14, -43, 10, 89], [-114, 72, 25, 56, 74, 101]]",[],,,,test,12,75,3.1622776601683813
34,2200.0,523565,mouselab,False,"[0, 0, 0, 0, 0, 0]","[0.25, 0.11, 0.47, 0.17]",1,[],0.0,f2xpn3YCjwjoU5x,0,"[[0, 0, 0, 0, 0, 0], [0, 0, 0, 0, 0, 0], [0, 0, 0, 0, 0, 0], [0, 0, 0, 0, 0, 0]]",2,31,31,1,"[[-22, -114, 79, 5, 92, -114], [-33, 60, -77, -61, 40, 174], [-71, 31, -34, -6, -5, 13], [-49, 92, 93, 56, 67, -111]]",[],,,,test,13,75,3.1622776601683813
34,1744.0,526925,mouselab,False,"[0, 0, 0, 0, 0, 0]","[0.19, 0.51, 0.1, 0.2]",1,[],0.0,B9PWF5Bu1hHzIBA,0,"[[0, 0, 0, 0, 0, 0], [0, 0, 0, 0, 0, 0], [0, 0, 0, 0, 0, 0], [0, 0, 0, 0, 0, 0]]",1,-71,-71,2,"[[87, 10, 22, -15, 44, 161], [93, 107, -71, -46, 3, 182], [-167, 82, -41, 30, -43, -5], [127, 73, -100, -78, 2, -23]]",[],,,,test,14,75,3.1622776601683813
34,1624.0,530772,mouselab,False,"[0, 0, 0, 0, 0, 0]","[0.48, 0.25, 0.24, 0.03]",1,[],0.0,SaPACZPUDlvdmkP,0,"[[0, 0, 0, 0, 0, 0], [0, 0, 0, 0, 0, 0], [0, 0, 0, 0, 0, 0], [0, 0, 0, 0, 0, 0]]",2,44,44,4,"[[11, -192, -3, -131, 0, 63], [99, -2, -149, 65, -106, 101], [12, -17, -175, -95, 44, -177], [15, -23, -34, 84, -149, 28]]",[],,,,test,15,75,3.1622776601683813
34,1416.0,533764,mouselab,False,"[0, 0, 0, 0, 0, 0]","[0.08000000000000002, 0.33, 0.16, 0.43]",1,[],0.0,X1an3is3yUOfCuZ,0,"[[0, 0, 0, 0, 0, 0], [0, 0, 0, 0, 0, 0], [0, 0, 0, 0, 0, 0], [0, 0, 0, 0, 0, 0]]",1,-22,-22,5,"[[11, 127, 163, 10, -12, 60], [-29, 43, 18, 65, 3, -22], [-22, -34, 11, -101, 22, 34], [-98, 115, -44, -8, 33, -7]]",[],,,,test,16,75,3.1622776601683813
34,2489.0,538372,mouselab,False,"[0, 0, 0, 0, 0, 0]","[0.3, 0.28, 0.07, 0.35]",1,[],0.0,uosTR7R5rWOZ2TL,0,"[[0, 0, 0, 0, 0, 0], [0, 0, 0, 0, 0, 0], [0, 0, 0, 0, 0, 0], [0, 0, 0, 0, 0, 0]]",1,135,135,0,"[[-9, -78, -36, -68, -82, 62], [135, -24, -85, -12, 1, -37], [-114, 88, -33, 158, -29, -49], [34, 60, -124, 8, -30, 180]]",[],,,,test,17,75,3.1622776601683813
34,2216.0,542132,mouselab,False,"[0, 0, 0, 0, 0, 0]","[0.15, 0.13, 0.43, 0.29]",1,[],0.0,aA237K2hoPccOCz,0,"[[0, 0, 0, 0, 0, 0], [0, 0, 0, 0, 0, 0], [0, 0, 0, 0, 0, 0], [0, 0, 0, 0, 0, 0]]",2,-200,-200,1,"[[1, 65, 8, 6, 47, 37], [23, -138, 57, 1, -97, -73], [-83, -200, 54, 89, 118, -117], [-32, 87, 70, -56, -19, -5]]",[],,,,test,18,75,3.1622776601683813
34,1671.0,546164,mouselab,False,"[0, 0, 0, 0, 0, 0]","[0.1, 0.54, 0.15, 0.21]",1,[],0.0,aYhiKG1buBq3xGu,0,"[[0, 0, 0, 0, 0, 0], [0, 0, 0, 0, 0, 0], [0, 0, 0, 0, 0, 0], [0, 0, 0, 0, 0, 0]]",2,-55,-55,0,"[[11, 99, 37, 96, -15, -10], [-102, 110, 161, -24, -71, 37], [-55, 8, 9, 21, 70, 82], [-34, -16, 17, 136, 62, 150]]",[],,,,test,19,75,3.1622776601683813
42,15162.0,29754,mouselab,False,"[0, 0, 0, 0, 0, 0]","[0.010000000000000009, 0.72, 0.12, 0.15]",4,[],0.0,ug6cLKSvnLTWxOA,0,"[[0, 0, 0, 0, 0, 0], [0, 0, 0, 0, 0, 0], [0, 0, 0, 0, 0, 0], [0, 0, 0, 0, 0, 0]]",3,137,137,0,"[[17, 177, 19, 74, 73, -20], [102, 26, 75, -67, -18, -105], [-12, -27, 39, -136, 124, -20], [137, 85, -76, -103, 43, 22]]",[],,,,instruct1,0,75,0.31622776601683805
42,6809.0,38859,mouselab,False,"[0, 0, 0, 0, 0, 0]","[0.01, 0.55, 0.38, 0.06]",4,[],0.0,I6ec6hcselxkUo2,0,"[[0, 0, 0, 0, 0, 0], [0, 0, 0, 0, 0, 0], [0, 0, 0, 0, 0, 0], [0, 0, 0, 0, 0, 0]]",1,84,84,2,"[[39, 19, -100, 124, 103, 74], [-118, 109, 84, 10, 20, 23], [-23, 10, -58, 2, 44, 176], [54, -12, -112, 123, -3, -141]]",[],,,,instruct1,1,75,0.31622776601683805
42,16163.0,58125,mouselab,False,"[0, 0, 0, 0, 0, 0]","[0.21, 0.18, 0.04, 0.57]",4,[],0.0,qOTp6WiWCwD2uUQ,0,"[[0, 0, 0, 0, 0, 0], [0, 0, 0, 0, 0, 0], [0, 0, 0, 0, 0, 0], [0, 0, 0, 0, 0, 0]]",0,158,158,5,"[[94, -20, -68, -94, 124, 158], [-14, -35, -77, -25, -65, -164], [-19, 79, -50, 72, 52, -77], [-8, -81, 111, 18, 65, -16]]",[],,,,instruct1,2,75,0.31622776601683805
42,21778.0,165530,mouselab,False,"[0, 0, 0, 0, 0, 0]","[0.49, 0.33, 0.02, 0.16]",4,[],0.0,sydK4yEJpghb956,0,"[[0, 0, 0, 0, 0, 0], [0, 0, 0, 0, 0, 0], [0, 0, 0, 0, 0, 0], [0, 0, 0, 0, 0, 0]]",3,-104,-104,1,"[[93, 36, 16, -28, -27, -110], [-89, 62, -33, 57, -138, 98], [-69, 20, -51, 29, -36, 51], [-24, -104, 23, -179, 36, 28]]",[],,,,instruct2,0,75,0.31622776601683805
42,8561.0,176059,mouselab,False,"[0, 0, 0, 0, 0, 0]","[0.73, 0.07, 0.03, 0.17]",4,[],0.0,PxAQf10GF4AeHJo,0,"[[0, 0, 0, 0, 0, 0], [0, 0, 0, 0, 0, 0], [0, 0, 0, 0, 0, 0], [0, 0, 0, 0, 0, 0]]",0,103,103,5,"[[-127, -18, 94, 27, 29, 103], [-93, 64, 190, 7, 35, 209], [38, 147, 47, 131, -72, 168], [-58, 3, 17, 15, 72, 84]]",[],dominating,,,instruct2,1,75,0.31622776601683805
42,11675.0,190237,mouselab,False,"[0, 0, 0, 0, 0, 0]","[0.46, 0.33, 0.05, 0.16]",4,[],0.0,3R2dgTJvGgi2aDr,0,"[[0, 0, 0, 0, 0, 0], [0, 0, 0, 0, 0, 0], [0, 0, 0, 0, 0, 0], [0, 0, 0, 0, 0, 0]]",0,259,259,2,"[[13, 46, 259, -75, 39, 30], [15, -44, -10, 89, 76, 22], [131, 34, 128, -15, 35, 83], [13, -56, -114, -80, -31, -61]]",[],,,,instruct2,2,75,0.31622776601683805
42,22803.0,220665,mouselab,False,"[0, 14, 58, -26, 0, 0]","[0.64, 0.33, 0.02, 0.01]",4,"[15825, 17217, 18425]",0.0,sI6tH6AHG2OwKDr,12,"[[0, 22, 90, -40, 0, 0], [0, 0, 0, 0, 0, 0], [0, 0, 0, 0, 0, 0], [0, 0, 0, 0, 0, 0]]",1,6,-6,2,"[[41, 22, 90, -40, -15, 44], [104, -174, 6, -165, -44, -29], [58, 118, -11, 55, 57, 70], [59, -70, 14, 102, -60, -68]]","[1, 3, 2]",,,,instruct3,0,75,0.31622776601683805
42,11129.0,237475,mouselab,False,"[2, -9, 4, 122, 0, 0]","[0.44, 0.06, 0.02, 0.48]",4,"[6775, 7807, 8335, 8944, 9872]",0.0,FY7UVEq2c9ayqON,20,"[[0, 0, 0, 130, 0, 0], [0, 0, 0, 0, 0, 0], [0, 0, 0, 0, 0, 0], [4, -19, 9, 135, 0, 0]]",0,130,110,3,"[[-66, -56, -7, 130, -59, 90], [92, 37, -91, 75, -10, 41], [24, -37, 16, 71, 116, -108], [4, -19, 9, 135, -15, 66]]","[18, 20, 19, 21, 3]",,,,instruct3,1,75,0.31622776601683805
42,7097.0,248258,mouselab,False,"[0, 50, 0, 0, 0, 0]","[0.4200000000000001, 0.03, 0.18, 0.37]",4,"[4864, 5872]",0.0,vIc698BPf7klCYk,8,"[[0, 61, 0, 0, 0, 0], [0, 0, 0, 0, 0, 0], [0, 0, 0, 0, 0, 0], [0, 65, 0, 0, 0, 0]]",2,80,72,1,"[[-83, 61, -80, -38, 35, -120], [-16, -48, 58, -12, 63, -5], [-102, 80, 44, 27, -11, 42], [45, 65, 114, 60, 51, 60]]","[1, 19]",,,,instruct3,2,75,0.31622776601683805
42,7922.0,271623,mouselab,False,"[0, -23, 0, 75, 0, 0]","[0.029999999999999992, 0.01, 0.77, 0.19]",4,"[3455, 4856]",0.0,Z6igLUgOZ1o22OJ,8,"[[0, 0, 0, 0, 0, 0], [0, 0, 0, 0, 0, 0], [0, -30, 0, 98, 0, 0], [0, 0, 0, 0, 0, 0]]",3,7,-1,3,"[[-40, -36, -135, 25, -23, -26], [75, -26, -49, -47, -134, -139], [-4, -30, -59, 98, 129, -6], [72, -44, 39, 7, -30, 7]]","[13, 15]",,,,test,0,75,0.31622776601683805
42,5378.0,279889,mouselab,False,"[0, 0, 45, 0, 0, 0]","[0.06, 0.26, 0.14, 0.54]",4,[2535],0.0,3uXiz4V3sUrSmY9,4,"[[0, 0, 0, 0, 0, 0], [0, 0, 0, 0, 0, 0], [0, 0, 0, 0, 0, 0], [0, 0, 84, 0, 0, 0]]",3,84,80,2,"[[-101, -31, 34, -10, 30, -23], [-98, -42, -2, 84, 60, -107], [65, -46, -22, -61, -87, 97], [84, 85, 84, 93, 18, -17]]",[20],,,,test,1,75,0.31622776601683805
42,7537.0,289834,mouselab,False,"[0, 0, 67, 26, -7, -39]","[0.06, 0.07, 0.81, 0.06]",4,"[2967, 4023, 5031, 6440]",0.0,si1lNmExwYp0qHd,16,"[[0, 0, 0, 0, 0, 0], [0, 0, 0, 0, 0, 0], [0, 0, 83, 32, -9, -48], [0, 0, 0, 0, 0, 0]]",2,83,67,2,"[[-69, 74, -146, 18, -66, -39], [-59, 123, 55, -117, -17, -38], [32, 53, 83, 32, -9, -48], [-24, -104, 109, 21, 25, 52]]","[17, 16, 15, 14]",,,,test,2,75,0.31622776601683805
42,10377.0,301331,mouselab,False,"[-14, 1, -24, -29, -43, -79]","[0.02000000000000001, 0.04, 0.64, 0.3]",4,"[2135, 3382, 4383, 5370, 6375, 7631]",0.0,klD1PHboiI6GI83,24,"[[0, 0, 0, 0, 0, 0], [0, 0, 0, 0, 0, 0], [-22, 1, -38, -46, -67, -123], [0, 0, 0, 0, 0, 0]]",2,1,-23,1,"[[-56, 69, -45, 13, -11, -81], [158, 111, -15, 70, 133, 4], [-22, 1, -38, -46, -67, -123], [-17, 31, -20, -11, -19, -48]]","[13, 12, 14, 15, 16, 17]",,,,test,3,75,0.31622776601683805
42,5968.0,309676,mouselab,False,"[0, 0, 12, 0, 23, 0]","[0.5, 0.19, 0.15, 0.16]",4,"[2919, 4408]",0.0,mlhb2P64mtEuQDH,8,"[[0, 0, 23, 0, 45, 0], [0, 0, 0, 0, 0, 0], [0, 0, 0, 0, 0, 0], [0, 0, 0, 0, 0, 0]]",0,45,37,4,"[[-53, 18, 23, -85, 45, -33], [-49, 130, -42, -100, 156, -80], [-29, 8, -51, -42, 21, 17], [4, 19, 36, -77, -8, 23]]","[2, 4]",,,,test,4,75,0.31622776601683805
42,5528.0,319667,mouselab,False,"[0, 0, 16, -18, 0, 0]","[0.06, 0.48, 0.03, 0.43]",4,"[2904, 3953]",0.0,Q8ZMcp5SHNKniCj,8,"[[0, 0, 0, 0, 0, 0], [0, 0, 34, -38, 0, 0], [0, 0, 0, 0, 0, 0], [0, 0, 0, 0, 0, 0]]",3,-77,-85,2,"[[-64, -14, -37, -37, -139, 10], [-30, 23, 34, -38, 29, 130], [50, -10, -34, 126, -54, 94], [-47, -75, -77, -33, 38, -38]]","[9, 8]",,,,test,5,75,0.31622776601683805
42,5794.0,331676,mouselab,False,"[31, -21, -48, -27, 0, 0]","[0.51, 0.17, 0.01, 0.31]",4,"[2720, 3424, 4161, 4833]",0.0,55wGWrG0AsulSFG,16,"[[61, -42, -94, -52, 0, 0], [0, 0, 0, 0, 0, 0], [0, 0, 0, 0, 0, 0], [0, 0, 0, 0, 0, 0]]",0,61,45,0,"[[61, -42, -94, -52, -163, 53], [85, -65, -84, 88, 40, 87], [53, -6, 64, -32, 83, -117], [101, 67, 39, -108, -29, 8]]","[3, 2, 1, 0]",,,,test,6,75,0.31622776601683805
42,6884.0,340726,mouselab,False,"[0, 16, 0, 110, 0, 0]","[0.03, 0.03, 0.2, 0.74]",4,"[4760, 5688]",0.0,Gq2ftjqDBmr2chN,8,"[[0, 0, 0, 0, 0, 0], [0, 0, 0, 0, 0, 0], [0, 0, 0, 0, 0, 0], [0, 21, 0, 148, 0, 0]]",2,-8,-16,3,"[[26, 3, -7, -50, 62, 37], [170, -11, -37, 11, -44, 59], [-158, -3, -108, -8, -23, -72], [5, 21, 96, 148, 8, -72]]","[19, 21]",,,,test,7,75,0.31622776601683805
42,6582.0,349972,mouselab,False,"[0, 0, 0, -60, 71, 0]","[0.06000000000000001, 0.04, 0.88, 0.02]",4,"[4724, 5637]",0.0,PCWdMJAPeV3vIAW,8,"[[0, 0, 0, 0, 0, 0], [0, 0, 0, 0, 0, 0], [0, 0, 0, -68, 81, 0], [0, 0, 0, 0, 0, 0]]",2,81,73,4,"[[-131, 85, 56, -12, -48, 108], [77, -51, -7, -137, 64, 40], [-42, 53, -43, -68, 81, 65], [67, -79, -44, 141, 59, -110]]","[15, 16]",,,,test,8,75,0.31622776601683805
42,4833.0,356037,mouselab,False,"[0, 0, 41, 0, 8, 0]","[0.06, 0.01, 0.6, 0.33]",4,"[2735, 3855]",0.0,q8OiXnEuGsljtb2,8,"[[0, 0, 0, 0, 0, 0], [0, 0, 0, 0, 0, 0], [0, 0, 69, 0, 14, 0], [0, 0, 0, 0, 0, 0]]",2,69,61,2,"[[15, 90, 55, -167, -78, -16], [-46, -81, 39, 134, 26, -7], [46, -19, 69, -177, 14, -104], [-32, -73, -15, 28, 203, 27]]","[16, 14]",,,,test,9,75,0.31622776601683805
42,7320.0,366455,mouselab,False,"[28, -37, -13, -6, -17, 0]","[0.38, 0.05, 0.02, 0.55]",4,"[2575, 4055, 4927, 5719, 6519]",0.0,nQ4KJRm5qzDmfGs,20,"[[0, 0, 0, 0, 0, 0], [0, 0, 0, 0, 0, 0], [0, 0, 0, 0, 0, 0], [50, -67, -24, -11, -31, 0]]",0,13,-7,0,"[[13, 44, -5, 28, -6, -76], [-40, 25, 9, -196, 123, -17], [-133, 45, -113, -55, 31, -16], [50, -67, -24, -11, -31, -43]]","[22, 21, 20, 19, 18]",,,,test,10,75,0.31622776601683805
42,7948.0,375803,mouselab,False,"[0, 0, 0, 12, 5, 5]","[0.02, 0.47, 0.14, 0.37]",4,"[3794, 5026, 6139]",0.0,02RpShoPR0hc5AX,12,"[[0, 0, 0, 0, 0, 0], [0, 0, 0, 26, 11, 10], [0, 0, 0, 0, 0, 0], [0, 0, 0, 0, 0, 0]]",1,26,14,3,"[[-69, 20, -39, -17, -12, -39], [-84, 32, 105, 26, 11, 10], [55, 72, -55, -6, -46, 98], [-48, 65, 13, 95, 7, -61]]","[9, 10, 11]",,,,test,11,75,0.31622776601683805
42,3785.0,384039,mouselab,False,"[0, 40, -119, 0, 0, 0]","[0.04, 0.29, 0.65, 0.02]",4,"[1846, 2614]",0.0,lIbaNiqegro6KIA,8,"[[0, 0, 0, 0, 0, 0], [0, 0, 0, 0, 0, 0], [0, 61, -183, 0, 0, 0], [0, 0, 0, 0, 0, 0]]",1,14,6,1,"[[140, 81, 49, 185, 81, -77], [52, 14, -168, 7, -3, 51], [-119, 61, -183, 64, -31, 6], [49, -53, -44, -94, 23, -90]]","[14, 13]",,,,test,12,75,0.31622776601683805
42,5970.0,392338,mouselab,False,"[0, 0, 22, 0, -14, 0]","[0.37, 0.44, 0.17, 0.02]",4,"[2431, 3704, 4727]",0.0,IBOZgXFSkyvyiUf,12,"[[0, 0, 29, 0, 0, 0], [0, 0, 26, 0, -32, 0], [0, 0, 0, 0, 0, 0], [0, 0, 0, 0, 0, 0]]",0,29,17,2,"[[15, -30, 29, -47, -45, -53], [-99, -104, 26, 20, -32, -84], [159, -28, 100, -106, 63, 32], [61, -31, -171, -16, -79, -55]]","[10, 8, 2]",,,,test,13,75,0.31622776601683805
42,4576.0,398913,mouselab,False,"[0, 0, 0, 45, 0, 0]","[0.01999999999999999, 0.01, 0.47, 0.5]",4,[2518],0.0,VHZfp8VcgwqWdru,4,"[[0, 0, 0, 0, 0, 0], [0, 0, 0, 0, 0, 0], [0, 0, 0, 0, 0, 0], [0, 0, 0, 90, 0, 0]]",3,90,86,3,"[[-90, 14, -114, -41, 210, 42], [-91, 101, 22, 57, 105, 86], [94, -30, 150, -10, -154, 52], [-78, -66, 54, 90, -24, 34]]",[21],,,,test,14,75,0.31622776601683805
42,4593.0,405369,mouselab,False,"[0, 0, 0, 39, 0, 0]","[0.010000000000000111, 0.58, 0.06, 0.35]",4,[3264],0.0,12Smwv1zSNyuuxE,4,"[[0, 0, 0, 0, 0, 0], [0, 0, 0, 68, 0, 0], [0, 0, 0, 0, 0, 0], [0, 0, 0, 0, 0, 0]]",1,68,64,3,"[[-120, 22, -32, -105, -105, 26], [-6, -42, -123, 68, 59, -90], [87, -117, 56, -95, 34, -15], [-72, 54, 86, 15, -103, -66]]",[9],,,,test,15,75,0.31622776601683805
42,5746.0,413266,mouselab,False,"[0, -23, -51, 4, 71, 0]","[0.09, 0.1, 0.61, 0.2]",4,"[2252, 3472, 4160, 4968]",0.0,rVjVpCboG0KJwv1,16,"[[0, 0, 0, 0, 0, 0], [0, 0, 0, 0, 0, 0], [0, -38, -84, 6, 116, 0], [0, 0, 0, 0, 0, 0]]",2,116,100,4,"[[10, -11, 78, -20, 94, 69], [-36, -45, 82, -86, -100, 31], [-48, -38, -84, 6, 116, -74], [114, 25, -50, -68, 52, 53]]","[15, 13, 14, 16]",,,,test,16,75,0.31622776601683805
42,3995.0,418924,mouselab,False,"[0, 0, 0, 0, 64, 0]","[0.19, 0.01, 0.45, 0.35]",4,[2495],0.0,YwmSZ9XOPRdJfbN,4,"[[0, 0, 0, 0, 0, 0], [0, 0, 0, 0, 0, 0], [0, 0, 0, 0, 142, 0], [0, 0, 0, 0, 0, 0]]",0,-97,-101,4,"[[-78, 47, -34, 184, -97, -79], [-99, 36, -76, 99, -22, 31], [-87, 88, 57, 26, 142, 59], [88, -44, 138, 16, 128, 71]]",[16],,,,test,17,75,0.31622776601683805
42,6880.0,428213,mouselab,False,"[0, 0, 0, -10, 31, 88]","[0.09, 0.19, 0.08, 0.64]",4,"[4231, 5095, 6111]",0.0,WdVOkNPSiCkiKDf,12,"[[0, 0, 0, 0, 0, 0], [0, 0, 0, 0, 0, 0], [0, 0, 0, 0, 0, 0], [0, 0, 0, -16, 48, 138]]",2,-15,-27,5,"[[-87, -59, 53, -49, -157, -46], [-139, 11, 115, -40, -204, -116], [-51, -61, -54, 52, 84, -15], [-101, -17, 152, -16, 48, 138]]","[21, 22, 23]",,,,test,18,75,0.31622776601683805
42,9641.0,439014,mouselab,False,"[-37, -25, -4, -28, -15, -8]","[0.59, 0.22, 0.02, 0.17]",4,"[2158, 3231, 4046, 4687, 5319, 6391]",0.0,EDYV3TvmyqJrQOZ,24,"[[-62, -42, -7, -47, -26, -14], [0, 0, 0, 0, 0, 0], [0, 0, 0, 0, 0, 0], [0, 0, 0, 0, 0, 0]]",0,-7,-31,2,"[[-62, -42, -7, -47, -26, -14], [-13, -71, 120, -32, 98, -95], [-68, 29, -35, -55, -23, 22], [23, 4, 10, 112, 48, -82]]","[4, 3, 2, 1, 0, 5]",,,,test,19,75,0.31622776601683805
58,21844.0,42398,mouselab,True,"[0, 0, 0, 0, 0, 0]","[0.010000000000000009, 0.72, 0.12, 0.15]",1,[],20.0,ug6cLKSvnLTWxOA,0,"[[0, 0, 0, 0, 0, 0], [0, 0, 0, 0, 0, 0], [0, 0, 0, 0, 0, 0], [0, 0, 0, 0, 0, 0]]",1,102,102,0,"[[17, 177, 19, 74, 73, -20], [102, 26, 75, -67, -18, -105], [-12, -27, 39, -136, 124, -20], [137, 85, -76, -103, 43, 22]]",[],,,,instruct1,0,75,0.31622776601683805
58,4270.0,48595,mouselab,True,"[0, 0, 0, 0, 0, 0]","[0.01, 0.55, 0.38, 0.06]",1,[],20.0,I6ec6hcselxkUo2,0,"[[0, 0, 0, 0, 0, 0], [0, 0, 0, 0, 0, 0], [0, 0, 0, 0, 0, 0], [0, 0, 0, 0, 0, 0]]",2,10,10,1,"[[39, 19, -100, 124, 103, 74], [-118, 109, 84, 10, 20, 23], [-23, 10, -58, 2, 44, 176], [54, -12, -112, 123, -3, -141]]",[],,,,instruct1,1,75,0.31622776601683805
58,25492.0,77460,mouselab,True,"[0, 0, 0, 0, 0, 0]","[0.21, 0.18, 0.04, 0.57]",1,[],20.0,qOTp6WiWCwD2uUQ,0,"[[0, 0, 0, 0, 0, 0], [0, 0, 0, 0, 0, 0], [0, 0, 0, 0, 0, 0], [0, 0, 0, 0, 0, 0]]",1,-164,-164,5,"[[94, -20, -68, -94, 124, 158], [-14, -35, -77, -25, -65, -164], [-19, 79, -50, 72, 52, -77], [-8, -81, 111, 18, 65, -16]]",[],,,,instruct1,2,75,0.31622776601683805
58,10924.0,216219,mouselab,True,"[0, 0, 0, 0, 0, 0]","[0.49, 0.33, 0.02, 0.16]",1,[],20.0,sydK4yEJpghb956,0,"[[0, 0, 0, 0, 0, 0], [0, 0, 0, 0, 0, 0], [0, 0, 0, 0, 0, 0], [0, 0, 0, 0, 0, 0]]",0,93,93,0,"[[93, 36, 16, -28, -27, -110], [-89, 62, -33, 57, -138, 98], [-69, 20, -51, 29, -36, 51], [-24, -104, 23, -179, 36, 28]]",[],,,,instruct2,0,75,0.31622776601683805
58,5408.0,225365,mouselab,True,"[0, 0, 0, 0, 0, 0]","[0.73, 0.07, 0.03, 0.17]",1,[],20.0,PxAQf10GF4AeHJo,0,"[[0, 0, 0, 0, 0, 0], [0, 0, 0, 0, 0, 0], [0, 0, 0, 0, 0, 0], [0, 0, 0, 0, 0, 0]]",1,209,209,5,"[[-127, -18, 94, 27, 29, 103], [-93, 64, 190, 7, 35, 209], [38, 147, 47, 131, -72, 168], [-58, 3, 17, 15, 72, 84]]",[],dominating,,,instruct2,1,75,0.31622776601683805
58,5810.0,233128,mouselab,True,"[0, 0, 0, 0, 0, 0]","[0.46, 0.33, 0.05, 0.16]",1,[],20.0,3R2dgTJvGgi2aDr,0,"[[0, 0, 0, 0, 0, 0], [0, 0, 0, 0, 0, 0], [0, 0, 0, 0, 0, 0], [0, 0, 0, 0, 0, 0]]",1,-10,-10,2,"[[13, 46, 259, -75, 39, 30], [15, -44, -10, 89, 76, 22], [131, 34, 128, -15, 35, 83], [13, -56, -114, -80, -31, -61]]",[],,,,instruct2,2,75,0.31622776601683805
58,37008.0,278864,mouselab,True,"[26, 0, 58, 0, -10, 0]","[0.64, 0.33, 0.02, 0.01]",1,"[27603, 29837, 31545]",20.0,sI6tH6AHG2OwKDr,3,"[[41, 0, 90, 0, -15, 0], [0, 0, 0, 0, 0, 0], [0, 0, 0, 0, 0, 0], [0, 0, 0, 0, 0, 0]]",0,90,87,2,"[[41, 22, 90, -40, -15, 44], [104, -174, 6, -165, -44, -29], [58, 118, -11, 55, 57, 70], [59, -70, 14, 102, -60, -68]]","[0, 2, 4]",,,,instruct3,0,75,0.31622776601683805
58,20866.0,302640,mouselab,True,"[2, 0, 4, 65, -7, 0]","[0.44, 0.06, 0.02, 0.48]",1,"[4458, 5650, 6791, 8879]",20.0,FY7UVEq2c9ayqON,4,"[[0, 0, 0, 0, 0, 0], [0, 0, 0, 0, 0, 0], [0, 0, 0, 0, 0, 0], [4, 0, 9, 135, -15, 0]]",0,130,126,3,"[[-66, -56, -7, 130, -59, 90], [92, 37, -91, 75, -10, 41], [24, -37, 16, 71, 116, -108], [4, -19, 9, 135, -15, 66]]","[18, 20, 22, 21]",,,,instruct3,1,75,0.31622776601683805
58,21481.0,333671,mouselab,True,"[-35, 26, -34, -16, 15, -50]","[0.4200000000000001, 0.03, 0.18, 0.37]",1,"[4366, 6167, 7374, 9236, 11021, 13216]",20.0,vIc698BPf7klCYk,6,"[[-83, 61, -80, -38, 35, -120], [0, 0, 0, 0, 0, 0], [0, 0, 0, 0, 0, 0], [0, 0, 0, 0, 0, 0]]",3,65,59,1,"[[-83, 61, -80, -38, 35, -120], [-16, -48, 58, -12, 63, -5], [-102, 80, 44, 27, -11, 42], [45, 65, 114, 60, 51, 60]]","[0, 2, 4, 5, 1, 3]",,,,instruct3,2,75,0.31622776601683805
58,21383.0,367818,mouselab,True,"[-3, 0, -45, 0, 99, 0]","[0.029999999999999992, 0.01, 0.77, 0.19]",1,"[4654, 6264, 8072]",20.0,Z6igLUgOZ1o22OJ,3,"[[0, 0, 0, 0, 0, 0], [0, 0, 0, 0, 0, 0], [-4, 0, -59, 0, 129, 0], [0, 0, 0, 0, 0, 0]]",3,-30,-33,4,"[[-40, -36, -135, 25, -23, -26], [75, -26, -49, -47, -134, -139], [-4, -30, -59, 98, 129, -6], [72, -44, 39, 7, -30, 7]]","[12, 14, 16]",,,,test,0,75,0.31622776601683805
58,21359.0,391122,mouselab,True,"[45, 46, 45, 72, 10, -9]","[0.06, 0.26, 0.14, 0.54]",1,"[3491, 5076, 6242, 7559, 8818, 10051, 20316]",20.0,3uXiz4V3sUrSmY9,7,"[[0, 0, 0, 0, 0, 0], [0, 0, 0, 84, 0, 0], [0, 0, 0, 0, 0, 0], [84, 85, 84, 93, 18, -17]]",1,84,77,3,"[[-101, -31, 34, -10, 30, -23], [-98, -42, -2, 84, 60, -107], [65, -46, -22, -61, -87, 97], [84, 85, 84, 93, 18, -17]]","[18, 20, 22, 23, 19, 21, 9]",,,,test,1,75,0.31622776601683805
58,20456.0,413537,mouselab,True,"[26, 0, 71, 26, -7, 0]","[0.06, 0.07, 0.81, 0.06]",1,"[3774, 4936, 6486, 9647, 12920]",20.0,si1lNmExwYp0qHd,5,"[[0, 0, 0, 0, 0, 0], [0, 0, 55, 0, 0, 0], [32, 0, 83, 32, -9, 0], [0, 0, 0, 0, 0, 0]]",2,83,78,2,"[[-69, 74, -146, 18, -66, -39], [-59, 123, 55, -117, -17, -38], [32, 53, 83, 32, -9, -48], [-24, -104, 109, 21, 25, 52]]","[12, 14, 16, 15, 8]",,,,test,2,75,0.31622776601683805
58,21606.0,436971,mouselab,True,"[-19, 10, -24, -29, -43, -79]","[0.02000000000000001, 0.04, 0.64, 0.3]",1,"[4026, 5195, 6283, 8310, 9639, 10726, 13704, 18703]",20.0,klD1PHboiI6GI83,8,"[[0, 0, 0, 0, 0, 0], [0, 0, 0, 0, 0, 0], [-22, 1, -38, -46, -67, -123], [-17, 31, 0, 0, 0, 0]]",2,1,-7,1,"[[-56, 69, -45, 13, -11, -81], [158, 111, -15, 70, 133, 4], [-22, 1, -38, -46, -67, -123], [-17, 31, -20, -11, -19, -48]]","[13, 15, 17, 12, 16, 14, 19, 18]",,,,test,3,75,0.31622776601683805
58,20629.0,462240,mouselab,True,"[-26, 9, 12, -42, 52, -16]","[0.5, 0.19, 0.15, 0.16]",1,"[4126, 5537, 6683, 8931, 10032, 11157, 13950]",20.0,mlhb2P64mtEuQDH,7,"[[-53, 18, 23, -85, 45, -33], [0, 0, 0, 0, 156, 0], [0, 0, 0, 0, 0, 0], [0, 0, 0, 0, 0, 0]]",3,-8,-15,4,"[[-53, 18, 23, -85, 45, -33], [-49, 130, -42, -100, 156, -80], [-29, 8, -51, -42, 21, 17], [4, 19, 36, -77, -8, 23]]","[0, 3, 5, 1, 2, 4, 10]",,,,test,4,75,0.31622776601683805
58,20700.0,486741,mouselab,True,"[-14, 11, -17, 0, 30, 0]","[0.06, 0.48, 0.03, 0.43]",1,"[2885, 5673, 6843, 9243, 11759, 14411]",20.0,Q8ZMcp5SHNKniCj,6,"[[0, 0, 0, 0, 0, 0], [-30, 23, 34, 0, 29, 0], [0, 0, 0, 0, 0, 0], [0, 0, -77, 0, 38, 0]]",0,-139,-145,4,"[[-64, -14, -37, -37, -139, 10], [-30, 23, 34, -38, 29, 130], [50, -10, -34, 126, -54, 94], [-47, -75, -77, -33, 38, -38]]","[6, 8, 20, 10, 7, 22]",,,,test,5,75,0.31622776601683805
58,20587.0,509835,mouselab,True,"[63, -21, -48, -27, -83, 30]","[0.51, 0.17, 0.01, 0.31]",1,"[4049, 4731, 5172, 5757, 6213, 6615, 9510, 11273, 14031]",20.0,55wGWrG0AsulSFG,9,"[[61, -42, -94, -52, -163, 53], [0, 0, 0, 0, 0, 0], [53, 0, 0, 0, 0, 0], [101, 0, 0, 0, 0, 8]]",1,85,76,0,"[[61, -42, -94, -52, -163, 53], [85, -65, -84, 88, 40, 87], [53, -6, 64, -32, 83, -117], [101, 67, 39, -108, -29, 8]]","[0, 1, 2, 3, 4, 5, 18, 23, 12]",,,,test,6,75,0.31622776601683805
58,22636.0,534310,mouselab,True,"[-28, 15, 49, 108, 1, -14]","[0.03, 0.03, 0.2, 0.74]",1,"[2499, 6235, 9883, 11059, 12700, 14978, 15875, 17242, 18465, 18988, 20881]",20.0,Gq2ftjqDBmr2chN,11,"[[0, 0, 0, 0, 0, 0], [0, 0, 0, 0, 0, 0], [-158, -3, -108, -8, -23, -72], [5, 21, 96, 148, 8, 0]]",3,148,137,3,"[[26, 3, -7, -50, 62, 37], [170, -11, -37, 11, -44, 59], [-158, -3, -108, -8, -23, -72], [5, 21, 96, 148, 8, -72]]","[18, 12, 20, 14, 22, 19, 13, 15, 16, 17, 21]",,,,test,7,75,0.31622776601683805
58,20419.0,556362,mouselab,True,"[-37, 0, -38, 0, 68, 64]","[0.06000000000000001, 0.04, 0.88, 0.02]",1,"[3228, 4831, 5909, 8553, 11363, 12465]",20.0,PCWdMJAPeV3vIAW,6,"[[0, 0, 0, 0, -48, 108], [0, 0, 0, 0, 0, 0], [-42, 0, -43, 0, 81, 65], [0, 0, 0, 0, 0, 0]]",2,65,59,5,"[[-131, 85, 56, -12, -48, 108], [77, -51, -7, -137, 64, 40], [-42, 53, -43, -68, 81, 65], [67, -79, -44, 141, 59, -110]]","[12, 14, 16, 4, 17, 5]",,,,test,8,75,0.31622776601683805
58,20570.0,578802,mouselab,True,"[17, -11, 36, -106, 75, -62]","[0.06, 0.01, 0.6, 0.33]",1,"[4101, 7009, 9304, 10322, 11484, 12692, 14316, 15290, 17059]",20.0,q8OiXnEuGsljtb2,9,"[[0, 0, 0, 0, 0, 0], [0, 0, 0, 0, 0, 0], [46, -19, 69, -177, 14, -104], [-32, 0, -15, 0, 203, 0]]",2,14,5,4,"[[15, 90, 55, -167, -78, -16], [-46, -81, 39, 134, 26, -7], [46, -19, 69, -177, 14, -104], [-32, -73, -15, 28, 203, 27]]","[12, 14, 20, 18, 15, 17, 13, 16, 22]",,,,test,9,75,0.31622776601683805
58,20462.0,603557,mouselab,True,"[32, -37, -13, -6, -17, -24]","[0.38, 0.05, 0.02, 0.55]",1,"[5239, 7753, 13231, 14157, 14841, 15646, 16215]",20.0,nQ4KJRm5qzDmfGs,7,"[[13, 0, 0, 0, 0, 0], [0, 0, 0, 0, 0, 0], [0, 0, 0, 0, 0, 0], [50, -67, -24, -11, -31, -43]]",3,50,43,0,"[[13, 44, -5, 28, -6, -76], [-40, 25, 9, -196, 123, -17], [-133, 45, -113, -55, 31, -16], [50, -67, -24, -11, -31, -43]]","[18, 0, 20, 19, 22, 21, 23]",,,,test,10,75,0.31622776601683805
58,20657.0,631387,mouselab,True,"[-39, 0, 54, 0, 5, 0]","[0.02, 0.47, 0.14, 0.37]",1,"[4558, 5582, 8651, 11484]",20.0,02RpShoPR0hc5AX,4,"[[0, 0, 0, 0, 0, 0], [-84, 0, 105, 0, 11, 0], [0, 0, 0, 0, 0, 0], [0, 0, 13, 0, 0, 0]]",3,13,9,2,"[[-69, 20, -39, -17, -12, -39], [-84, 32, 105, 26, 11, 10], [55, 72, -55, -6, -46, 98], [-48, 65, 13, 95, 7, -61]]","[6, 8, 20, 10]",,,,test,11,75,0.31622776601683805
58,24540.0,660325,mouselab,True,"[-77, 44, -119, 44, -20, 19]","[0.04, 0.29, 0.65, 0.02]",1,"[2325, 3718, 5062, 5883, 6774, 7396, 9803, 10848, 14006]",20.0,lIbaNiqegro6KIA,9,"[[0, 0, 0, 0, 0, 0], [0, 14, 0, 7, 0, 51], [-119, 61, -183, 64, -31, 6], [0, 0, 0, 0, 0, 0]]",1,14,5,1,"[[140, 81, 49, 185, 81, -77], [52, 14, -168, 7, -3, 51], [-119, 61, -183, 64, -31, 6], [49, -53, -44, -94, 23, -90]]","[12, 14, 16, 17, 15, 13, 9, 7, 11]",,,,test,12,75,0.31622776601683805
58,20789.0,683959,mouselab,True,"[-44, -46, 39, 9, -14, -37]","[0.37, 0.44, 0.17, 0.02]",1,"[2544, 3539, 4268, 4838, 5453, 6061, 8803, 10019]",20.0,IBOZgXFSkyvyiUf,8,"[[0, 0, 29, 0, 0, 0], [-99, -104, 26, 20, -32, -84], [0, 0, 100, 0, 0, 0], [0, 0, 0, 0, 0, 0]]",1,26,18,2,"[[15, -30, 29, -47, -45, -53], [-99, -104, 26, 20, -32, -84], [159, -28, 100, -106, 63, 32], [61, -31, -171, -16, -79, -55]]","[6, 8, 10, 11, 9, 7, 2, 14]",,,,test,13,75,0.31622776601683805
58,21455.0,707222,mouselab,True,"[-39, -33, 98, 40, -12, 17]","[0.01999999999999999, 0.01, 0.47, 0.5]",1,"[2611, 3628, 4213, 4653, 5149, 5610, 7821, 9180]",20.0,VHZfp8VcgwqWdru,8,"[[0, 0, 0, 0, 0, 0], [0, 0, 0, 0, 0, 0], [0, 0, 150, -10, 0, 0], [-78, -66, 54, 90, -24, 34]]",3,54,46,2,"[[-90, 14, -114, -41, 210, 42], [-91, 101, 22, 57, 105, 86], [94, -30, 150, -10, -154, 52], [-78, -66, 54, 90, -24, 34]]","[18, 19, 20, 21, 22, 23, 15, 14]",,,,test,14,75,0.31622776601683805
58,20397.0,729275,mouselab,True,"[-29, -24, -71, 45, -2, -52]","[0.010000000000000111, 0.58, 0.06, 0.35]",1,"[2758, 3379, 4002, 4551, 4984, 5410, 7195, 8098, 16264]",20.0,12Smwv1zSNyuuxE,9,"[[0, 0, 0, 0, 0, 0], [-6, -42, -123, 68, 59, -90], [0, 0, 0, 0, 0, 0], [-72, 0, 0, 15, -103, 0]]",1,68,59,3,"[[-120, 22, -32, -105, -105, 26], [-6, -42, -123, 68, 59, -90], [87, -117, 56, -95, 34, -15], [-72, 54, 86, 15, -103, -66]]","[6, 8, 7, 9, 10, 11, 21, 22, 18]",,,,test,15,75,0.31622776601683805
58,20464.0,751254,mouselab,True,"[-29, -23, -51, 4, 81, -45]","[0.09, 0.1, 0.61, 0.2]",1,"[5954, 6478, 6957, 7376, 7898, 8613, 9069]",20.0,rVjVpCboG0KJwv1,7,"[[0, 0, 0, 0, 0, 0], [0, 0, 0, 0, 0, 0], [-48, -38, -84, 6, 116, -74], [0, 0, 0, 0, 52, 0]]",2,116,109,4,"[[10, -11, 78, -20, 94, 69], [-36, -45, 82, -86, -100, 31], [-48, -38, -84, 6, 116, -74], [114, 25, -50, -68, 52, 53]]","[12, 13, 14, 15, 22, 16, 17]",,,,test,16,75,0.31622776601683805
58,20336.0,773838,mouselab,True,"[-39, 24, 26, 12, 109, 27]","[0.19, 0.01, 0.45, 0.35]",1,"[1639, 2138, 2776, 3624, 4154, 4722, 7908, 9215]",20.0,YwmSZ9XOPRdJfbN,8,"[[0, 0, 0, 0, 0, 0], [0, 0, 0, 0, 0, 0], [-87, 88, 57, 26, 142, 59], [0, -44, 0, 0, 128, 0]]",0,-97,-105,4,"[[-78, 47, -34, 184, -97, -79], [-99, 36, -76, 99, -22, 31], [-87, 88, 57, 26, 142, 59], [88, -44, 138, 16, 128, 71]]","[12, 13, 14, 15, 16, 17, 19, 22]",,,,test,17,75,0.31622776601683805
58,20291.0,796248,mouselab,True,"[-65, -11, 120, -10, -8, 66]","[0.09, 0.19, 0.08, 0.64]",1,"[2118, 2733, 3326, 3802, 4246, 4671, 7322, 8294, 9715, 10512, 16483]",20.0,WdVOkNPSiCkiKDf,11,"[[0, 0, 53, 0, 0, 0], [0, 0, 115, 0, -204, -116], [0, 0, -54, 0, 0, 0], [-101, -17, 152, -16, 48, 138]]",0,53,42,2,"[[-87, -59, 53, -49, -157, -46], [-139, 11, 115, -40, -204, -116], [-51, -61, -54, 52, 84, -15], [-101, -17, 152, -16, 48, 138]]","[18, 19, 20, 21, 22, 23, 8, 11, 14, 2, 10]",,,,test,18,75,0.31622776601683805
58,21041.0,821824,mouselab,True,"[-37, -25, 22, -28, -15, -8]","[0.59, 0.22, 0.02, 0.17]",1,"[2420, 2914, 3377, 3818, 4289, 4707, 7799]",20.0,EDYV3TvmyqJrQOZ,7,"[[-62, -42, -7, -47, -26, -14], [0, 0, 120, 0, 0, 0], [0, 0, 0, 0, 0, 0], [0, 0, 0, 0, 0, 0]]",0,-7,-14,2,"[[-62, -42, -7, -47, -26, -14], [-13, -71, 120, -32, 98, -95], [-68, 29, -35, -55, -23, 22], [23, 4, 10, 112, 48, -82]]","[0, 1, 2, 3, 4, 5, 8]",,,,test,19,75,0.31622776601683805
20,15559.0,27686,mouselab,True,"[0, 0, 0, 0, 0, 0]","[0.16, 0.19, 0.14, 0.51]",1,[],20.0,X12BTfukFos6kXf,0,"[[0, 0, 0, 0, 0, 0], [0, 0, 0, 0, 0, 0], [0, 0, 0, 0, 0, 0], [0, 0, 0, 0, 0, 0]]",1,25,25,0,"[[7, -35, -215, 120, 66, 61], [25, 127, -118, -78, -113, -87], [141, 21, -58, -44, 57, 72], [39, -44, -105, -76, -59, 146]]",[],,,,instruct1,0,75,3.1622776601683813
20,17234.0,52245,mouselab,True,"[0, 0, 0, 0, 0, 0]","[0.23, 0.2, 0.41, 0.16]",1,[],20.0,q2A1Z7ZePsS6Nvy,0,"[[0, 0, 0, 0, 0, 0], [0, 0, 0, 0, 0, 0], [0, 0, 0, 0, 0, 0], [0, 0, 0, 0, 0, 0]]",2,0,0,2,"[[-84, 0, -102, -86, 110, 1], [-45, 33, -18, -17, -58, -62], [60, -70, 0, 25, 84, -28], [-29, -156, -38, 156, -62, -4]]",[],,,,instruct1,1,75,3.1622776601683813
20,15113.0,70142,mouselab,True,"[0, 0, 0, 0, 0, 0]","[0.21, 0.18, 0.04, 0.57]",1,[],20.0,EeEorZ4EuC60csv,0,"[[0, 0, 0, 0, 0, 0], [0, 0, 0, 0, 0, 0], [0, 0, 0, 0, 0, 0], [0, 0, 0, 0, 0, 0]]",3,5,5,5,"[[57, 100, -110, 45, -81, -56], [42, -104, 14, -55, -16, 37], [16, -15, 45, -72, -145, -24], [158, 10, -23, 60, -73, 5]]",[],,,,instruct1,2,75,3.1622776601683813
20,9312.0,148237,mouselab,True,"[0, 0, 0, 0, 0, 0]","[0.19, 0.18, 0.38, 0.25]",1,[],20.0,NouMBuG9exsqUGl,0,"[[0, 0, 0, 0, 0, 0], [0, 0, 0, 0, 0, 0], [0, 0, 0, 0, 0, 0], [0, 0, 0, 0, 0, 0]]",2,82,82,4,"[[56, 16, 62, -42, 150, 1], [182, -46, 1, 48, 183, 30], [-161, -40, -103, -188, 82, 15], [127, -40, -47, 106, 0, -104]]",[],,,,instruct2,0,75,3.1622776601683813
20,6208.0,156309,mouselab,True,"[0, 0, 0, 0, 0, 0]","[0.2, 0.13, 0.32, 0.35]",1,[],20.0,dKP45ICu0Osq80X,0,"[[0, 0, 0, 0, 0, 0], [0, 0, 0, 0, 0, 0], [0, 0, 0, 0, 0, 0], [0, 0, 0, 0, 0, 0]]",0,7,7,5,"[[-34, -12, -1, -7, -31, 7], [-66, 35, -53, -30, 90, 101], [5, 46, -4, -162, 142, 173], [4, -92, -93, -20, 31, 68]]",[],dominating,,,instruct2,1,75,3.1622776601683813
20,9081.0,167301,mouselab,True,"[0, 0, 0, 0, 0, 0]","[0.3699999999999999, 0.14, 0.33, 0.16]",1,[],20.0,ZWVbJxG8rjB5il8,0,"[[0, 0, 0, 0, 0, 0], [0, 0, 0, 0, 0, 0], [0, 0, 0, 0, 0, 0], [0, 0, 0, 0, 0, 0]]",0,203,203,2,"[[18, -10, 203, -7, 46, -17], [7, 108, -136, -213, 101, -93], [20, 79, 39, 35, 4, -9], [-5, 15, 16, -5, -90, -23]]",[],,,,instruct2,2,75,3.1622776601683813
20,33144.0,203604,mouselab,True,"[8, -41, -7, 3, 36, 15]","[0.27, 0.19, 0.18, 0.36]",1,"[23751, 24152, 24482, 24983, 29599, 30007, 30383, 30767, 31216]",20.0,I5b0PAbIlpxRoZM,9,"[[67, 0, 0, 0, 0, 0], [77, 0, 0, 0, 0, 0], [-67, 0, 0, 0, 0, 0], [-36, -113, -20, 7, 100, 42]]",0,-151,-160,4,"[[67, -83, -38, -12, -151, -19], [77, 40, 1, -130, 42, -33], [-67, 181, -35, -84, -59, -65], [-36, -113, -20, 7, 100, 42]]","[0, 6, 12, 18, 19, 20, 21, 22, 23]",,,,instruct3,0,75,3.1622776601683813
20,20745.0,226220,mouselab,True,"[3, 48, -16, 16, -30, 0]","[0.26, 0.3, 0.11, 0.33]",1,"[6007, 6343, 6679, 7223, 12367, 13919]",20.0,u7IBgyHnuPo3z1t,6,"[[0, 0, 0, 0, 0, 0], [0, 60, 0, 0, 0, 0], [0, 0, 0, 0, 0, 0], [10, 90, -49, 49, -91, 0]]",1,60,54,1,"[[-64, -39, -57, -32, -95, 22], [45, 60, 117, 8, -91, -4], [64, 49, 28, -54, 6, -79], [10, 90, -49, 49, -91, -87]]","[18, 19, 20, 21, 22, 7]",,,,instruct3,1,75,3.1622776601683813
20,20457.0,248717,mouselab,True,"[26, -14, 30, -3, -1, -13]","[0.09, 0.14, 0.43, 0.34]",1,"[4400, 4848, 5328, 12328, 13236, 13608, 14456, 14808, 15160, 15464, 16408]",20.0,dfucN9SrzSSRDqJ,11,"[[0, 0, 0, 0, 0, 0], [0, 0, 0, 0, 0, 0], [65, 66, 81, -21, -21, -30], [-7, -124, -14, 17, 23, 0]]",1,92,81,2,"[[0, 100, 41, 42, -7, -82], [76, 56, 92, 14, 4, -113], [65, 66, 81, -21, -21, -30], [-7, -124, -14, 17, 23, 54]]","[12, 13, 14, 15, 16, 17, 18, 19, 20, 21, 22]",,,,instruct3,2,75,3.1622776601683813
20,24191.0,534548,mouselab,True,"[17, -7, -27, -5, 0, 0]","[0.29, 0.22, 0.26, 0.23]",1,"[9830, 10686, 11401, 11886, 13038, 17862, 18814, 20734]",20.0,tK9NSXZJXL2a1DM,8,"[[27, -53, -32, -18, 0, 0], [29, 0, 0, 0, 0, 0], [9, 32, -68, 0, 0, 0], [0, 0, 0, 0, 0, 0]]",2,9,1,0,"[[27, -53, -32, -18, 75, 68], [29, 3, 15, 149, -146, 2], [9, 32, -68, 54, -108, -104], [98, 31, 97, 8, -114, -101]]","[0, 1, 2, 3, 12, 13, 14, 6]",,,,test,0,75,3.1622776601683813
20,20768.0,558068,mouselab,True,"[-20, -2, -19, 12, -33, -3]","[0.23, 0.32, 0.29, 0.16]",1,"[4303, 4759, 5191, 5551, 5911, 6295, 6975, 7263, 7823, 8207, 8895, 12671, 13623]",20.0,HO2m16im97e1RLZ,13,"[[0, 0, -163, 0, 0, 0], [13, -25, 81, 4, -24, -10], [-85, 19, -88, 37, -86, 0], [0, 0, 116, 0, 0, 0]]",3,116,103,2,"[[-50, 10, -163, 57, 26, 95], [13, -25, 81, 4, -24, -10], [-85, 19, -88, 37, -86, 5], [-41, 47, 116, -1, -4, -34]]","[6, 12, 7, 13, 8, 14, 9, 15, 10, 16, 11, 2, 20]",,,,test,1,75,3.1622776601683813
