pid,rt,time_elapsed,trial_type,click_cost,payoff_index,probabilities,payoff_value,net_payoff,clicks,payoff_matrix,click_times,cost,choice_index,block,trial_index
1,89462.0,101509,mouselab,0,3,"[0.2, 0.2, 0.1, 0.5]",193,193,[],"[[64, 105, -342, 28, -176, -43], [-98, 16, 72, -81, -21, 269], [95, -94, 32, 227, -134, 3], [193, 109, -75, -142, -48, 175]]",[],8,0,instruct1,0
1,2383.0,107585,mouselab,0,0,"[0.2, 0.2, 0.1, 0.5]",105,105,[],"[[64, 105, -342, 28, -176, -43], [-98, 16, 72, -81, -21, 269], [95, -94, 32, 227, -134, 3], [193, 109, -75, -142, -48, 175]]",[],8,1,instruct1,1
1,1712.0,110723,mouselab,0,3,"[0.2, 0.2, 0.1, 0.5]",-75,-75,[],"[[64, 105, -342, 28, -176, -43], [-98, 16, 72, -81, -21, 269], [95, -94, 32, 227, -134, 3], [193, 109, -75, -142, -48, 175]]",[],8,2,instruct1,2
1,14070.0,128640,mouselab,0,2,"[0.26, 0.38, 0.24, 0.12]",297,297,[],"[[41, 13, 40, 109, 48, -93], [-11, -12, -147, 330, -63, 313], [-113, 236, -109, 297, 36, -9], [118, -111, -13, 281, -35, 264]]",[],8,3,instruct2,0
1,3869.0,134238,mouselab,0,0,"[0.92, 0.01, 0.06, 0.01]",391,391,[],"[[-114, 102, -201, 391, 194, 347], [105, 17, 307, 341, 189, 41], [72, -145, 76, 261, -311, 224], [-84, -23, 216, 245, -143, -319]]",[],8,3,instruct2,1
1,3370.0,139234,mouselab,0,1,"[0.06, 0.47, 0.3, 0.17]",334,334,[],"[[-46, 66, 128, 66, -50, -221], [17, 267, 334, -101, -62, 56], [364, 71, 424, 149, -11, 61], [160, -43, 197, -13, 47, -181]]",[],8,2,instruct2,2
1,12390.0,157558,mouselab,0,0,"[0.48, 0.23, 0.22, 0.07]",-174,-174,[],"[[80, -93, -72, -174, 100, -64], [168, 106, -153, -71, -51, 123], [96, 231, -240, -306, -193, 69], [39, -153, 152, -175, 190, 30]]",[],8,3,instruct3,0
1,1398.0,162144,mouselab,0,1,"[0.04000000000000001, 0.1, 0.27, 0.59]",-69,-69,[],"[[44, 18, 52, -69, -10, -27], [-240, -175, -7, -69, 30, 6], [61, 11, -139, 200, 41, -208], [-135, -38, 1, -87, -101, 119]]",[],8,3,instruct3,1
1,1570.0,167127,mouselab,0,3,"[0.16, 0.25, 0.03, 0.56]",177,177,[],"[[-55, 43, -11, 225, -184, 15], [131, 197, -55, -139, -92, 106], [-109, 128, -284, 43, -29, 391], [-36, -402, 11, 177, -33, 133]]",[],8,3,instruct3,2
1,6955.0,182254,mouselab,0,0,"[0.65, 0.13, 0.19, 0.03]",13,13,[],"[[-91, -97, 134, 13, 209, 127], [-110, -173, 182, 279, -24, -29], [-299, -52, -292, -270, -21, -78], [276, -34, -30, 5, -287, -85]]",[],8,3,test,0
1,1502.0,187010,mouselab,0,1,"[0.1, 0.68, 0.13, 0.09]",22,22,[],"[[-29, 205, -55, -185, 285, -322], [-156, 131, -41, 22, 311, -68], [149, -101, 35, -184, -118, 77], [43, 248, 123, 103, -78, -195]]",[],8,3,test,1
1,1634.0,196866,mouselab,0,2,"[0.37, 0.15, 0.3, 0.18]",16,16,[],"[[13, -176, -142, -128, -6, -312], [-7, 274, 13, -16, 180, -157], [-289, -124, -369, 16, 90, 318], [95, 187, -119, 275, -78, 129]]",[],8,3,test,2
1,2739.0,203349,mouselab,0,3,"[0.09000000000000001, 0.38, 0.03, 0.5]",8,8,[],"[[198, 437, 172, -50, -57, -166], [-35, -18, 70, 148, 137, -124], [249, 123, 65, 168, 93, 17], [-111, -114, 185, 8, 145, 132]]",[],8,3,test,3
1,1364.0,207172,mouselab,0,2,"[0.23, 0.33, 0.4, 0.04]",173,173,[],"[[122, -130, -104, 118, -103, -89], [-132, 79, 133, -76, 20, 270], [75, -159, 6, 173, 13, 65], [73, 55, -156, 90, 307, -128]]",[],8,3,test,4
1,1396.0,210632,mouselab,0,3,"[0.010000000000000009, 0.23, 0.02, 0.74]",39,39,[],"[[-180, -3, -31, 93, -48, 22], [237, -57, -45, 110, -71, -234], [-146, 114, -170, 112, -398, -306], [-147, -325, 175, 39, 256, 161]]",[],8,3,test,5
1,1296.0,213846,mouselab,0,2,"[0.58, 0.21, 0.16, 0.05]",-90,-90,[],"[[-69, -75, -475, -65, 59, 168], [-148, 54, 100, 124, 385, -191], [48, 192, 29, -90, 153, -68], [3, 159, -3, 32, 58, 240]]",[],8,3,test,6
1,1126.0,217303,mouselab,0,1,"[0.48, 0.3, 0.2, 0.02]",36,36,[],"[[123, -104, 0, -39, 134, -16], [-73, -271, -49, 36, -244, 199], [-341, 64, -255, 178, -46, -133], [-129, -148, -44, 80, 79, -129]]",[],8,3,test,7
1,1208.0,220689,mouselab,0,1,"[0.06, 0.29, 0.54, 0.11]",284,284,[],"[[316, 320, 63, -271, 26, 17], [68, 220, -107, 284, -74, -24], [-6, 321, 50, -121, 159, 90], [-41, 51, -113, 200, -133, -60]]",[],8,3,test,8
1,1624.0,224310,mouselab,0,3,"[0.17, 0.04, 0.06, 0.73]",45,45,[],"[[-206, -3, -176, -113, -207, -18], [-87, 106, 9, -119, 212, -137], [-146, -91, -104, -7, -172, -192], [74, -10, 46, 45, 79, -258]]",[],8,3,test,9
15,45727.0,53803,mouselab,0,2,"[0.2, 0.2, 0.1, 0.5]",-233,-233,[],"[[-334, 33, 30, -196, -69, 232], [90, 214, 207, -24, 109, -197], [-233, 192, -114, 49, -200, 75], [-133, 3, -132, -109, 6, -25]]",[],8,0,instruct1,0
15,5676.0,61255,mouselab,0,3,"[0.2, 0.2, 0.1, 0.5]",3,3,[],"[[-334, 33, 30, -196, -69, 232], [90, 214, 207, -24, 109, -197], [-233, 192, -114, 49, -200, 75], [-133, 3, -132, -109, 6, -25]]",[],8,1,instruct1,1
15,10709.0,87510,mouselab,0,0,"[0.2, 0.2, 0.1, 0.5]",30,30,[],"[[-334, 33, 30, -196, -69, 232], [90, 214, 207, -24, 109, -197], [-233, 192, -114, 49, -200, 75], [-133, 3, -132, -109, 6, -25]]",[],8,2,instruct1,2
15,13566.0,104102,mouselab,0,3,"[0.18000000000000002, 0.23, 0.3, 0.29]",198,198,[],"[[-137, 419, 314, 281, 7, 436], [67, -415, -267, 33, 3, 122], [-46, 193, -65, 105, 1, 243], [103, 55, -238, -29, 137, 198]]",[],8,5,instruct2,0
15,7692.0,114930,mouselab,0,2,"[0.21000000000000002, 0.43, 0.18, 0.18]",196,196,[],"[[-96, 62, -70, -28, 111, -27], [-5, 89, -223, -122, 207, 182], [13, 22, -69, 126, 196, 146], [-75, -2, -348, -92, 273, 254]]",[],8,4,instruct2,1
15,4744.0,122171,mouselab,0,2,"[0.31, 0.17, 0.29, 0.23]",186,186,[],"[[11, 208, 168, 233, -199, -5], [81, 233, 26, 293, 114, 47], [149, 94, -334, 186, -63, -438], [137, -48, 101, 193, 155, 53]]",[],8,3,instruct2,2
15,17631.0,144432,mouselab,24,3,"[0.28, 0.22, 0.24, 0.26]",-67,-91,"[16, 10, 8]","[[-327, 115, 75, 127, -37, -32], [-326, 97, 85, 38, 137, -173], [-29, -92, -82, -68, 52, 227], [29, 87, -210, -185, -67, -213]]","[13793, 14835, 15726]",8,4,instruct3,0
15,6248.0,152844,mouselab,24,0,"[0.19, 0.36, 0.2, 0.25]",-158,-182,"[1, 13, 16]","[[30, 253, -158, 77, -111, 164], [54, -39, -248, -52, 29, -301], [-23, -138, -30, 145, -90, 33], [92, -40, 172, 204, 97, -112]]","[2607, 3471, 4637]",8,2,instruct3,1
15,4492.0,159374,mouselab,24,0,"[0.3, 0.28, 0.18, 0.24]",262,238,"[6, 12, 11]","[[-277, 70, 262, -165, 148, 30], [-119, 13, 64, -36, -211, -240], [-31, 147, -104, 136, -143, -127], [27, 82, -181, -135, 32, 313]]","[1443, 2442, 3137]",8,2,instruct3,2
15,10308.0,189263,mouselab,16,1,"[0.16999999999999998, 0.28, 0.28, 0.27]",169,153,"[7, 19]","[[-11, -129, 254, 117, -124, 72], [37, 169, -150, -117, -39, -203], [151, 26, 107, 39, 148, -66], [-37, 167, 127, -44, -102, 37]]","[6821, 8242]",8,1,test,0
15,8259.0,199000,mouselab,32,3,"[0.36, 0.24, 0.18, 0.22]",-50,-82,"[3, 1, 2, 0]","[[111, -64, -42, -164, 169, -83], [36, -167, -192, -137, 222, 109], [91, -65, 397, -5, -17, -32], [-50, -36, 44, 103, 337, 513]]","[3719, 5265, 6181, 7160]",8,0,test,1
15,19293.0,220142,mouselab,88,0,"[0.21, 0.26, 0.31, 0.22]",56,-32,"[15, 16, 14, 13, 12, 17, 3, 5, 11, 7, 0]","[[56, 4, -80, -248, -110, -128], [-94, -38, 127, 65, -49, -127], [-56, -155, -172, 35, -247, 23], [-77, 17, 74, -164, -111, -19]]","[3382, 5451, 6334, 7208, 7725, 8526, 9716, 11911, 14724, 16454, 18170]",8,0,test,2
15,4616.0,227226,mouselab,16,2,"[0.2, 0.19, 0.41, 0.2]",203,187,"[14, 2]","[[227, -54, 76, -162, 349, 57], [-113, -27, 122, -104, 6, -77], [42, 37, 203, -210, 206, -12], [44, -230, -163, -104, -67, 273]]","[2515, 3875]",8,2,test,3
15,4731.0,233418,mouselab,16,1,"[0.17, 0.22, 0.29, 0.32]",-131,-147,"[20, 14]","[[224, 18, -50, 193, 101, -101], [218, -93, -131, -23, -160, 194], [40, -170, 93, 230, 380, 14], [85, 3, 215, 153, 55, -131]]","[2569, 3660]",8,2,test,4
15,7303.0,244351,mouselab,40,3,"[0.32, 0.2, 0.27, 0.21]",130,90,"[21, 3, 4, 9, 15]","[[-182, -73, -111, 49, 58, -95], [-135, -218, -10, -1, -213, -83], [-160, -104, 212, 100, -40, -355], [358, -28, -113, 130, 324, 2]]","[1015, 3179, 4717, 5714, 6212]",8,3,test,5
15,6987.0,254316,mouselab,40,3,"[0.25, 0.23, 0.28, 0.24]",66,26,"[15, 14, 8, 20, 2]","[[-177, -22, 92, -55, -49, 144], [18, -20, 156, -217, 39, 280], [-240, -63, 79, 9, 138, -133], [-352, -158, 66, 121, 109, 94]]","[1988, 2928, 4096, 5582, 6300]",8,2,test,6
15,2972.0,258340,mouselab,8,2,"[0.26, 0.3, 0.19, 0.25]",-11,-19,[8],"[[-353, 81, 97, 334, -263, 82], [65, 50, 19, 132, -63, -135], [66, -84, -11, 3, 43, -106], [124, -84, -160, 32, -57, -81]]",[1202],8,2,test,7
15,3114.0,263270,mouselab,16,3,"[0.22, 0.22, 0.27, 0.29]",125,109,"[6, 18]","[[-113, -169, 75, 70, 132, -136], [77, -4, 144, -211, -92, -101], [-76, -159, 43, -183, -154, 101], [125, 10, 121, 193, 46, 3]]","[1420, 2311]",8,0,test,8
15,15077.0,279782,mouselab,80,0,"[0.21, 0.29, 0.28, 0.22]",24,-56,"[14, 8, 2, 15, 10, 11, 7, 12, 1, 19]","[[-68, 24, -350, 14, -107, -285], [233, 102, 226, 77, -138, -309], [-220, 157, 95, -12, -52, -115], [-174, 158, 30, 191, -127, 195]]","[1743, 2617, 4433, 9018, 10045, 10892, 11698, 12307, 13088, 13673]",8,1,test,9
8,10904.0,27321,mouselab,0,0,"[0.2, 0.2, 0.1, 0.5]",-26,-26,[],"[[-30, -32, 5, 12, -26, -4], [88, 82, 2, -133, 81, 92], [81, 29, 11, -53, -11, 66], [-74, 54, -20, 46, -54, -9]]",[],8,4,instruct1,0
8,1840.0,30873,mouselab,0,3,"[0.2, 0.2, 0.1, 0.5]",46,46,[],"[[-30, -32, 5, 12, -26, -4], [88, 82, 2, -133, 81, 92], [81, 29, 11, -53, -11, 66], [-74, 54, -20, 46, -54, -9]]",[],8,3,instruct1,1
8,2065.0,34481,mouselab,0,0,"[0.2, 0.2, 0.1, 0.5]",-32,-32,[],"[[-30, -32, 5, 12, -26, -4], [88, 82, 2, -133, 81, 92], [81, 29, 11, -53, -11, 66], [-74, 54, -20, 46, -54, -9]]",[],8,1,instruct1,2
8,1849.0,37856,mouselab,0,0,"[0.19, 0.26, 0.22, 0.33]",92,92,[],"[[199, 183, 92, 58, -64, 70], [155, 19, 68, 1, -77, 126], [205, -74, 169, -138, -104, -180], [91, -12, -16, -1, -2, 79]]",[],8,2,instruct2,0
8,2825.0,42064,mouselab,0,2,"[0.28, 0.15, 0.25, 0.32]",109,109,[],"[[93, -96, -94, 41, 59, 63], [47, -71, 36, -7, 1, -17], [147, -47, 132, -77, 109, 126], [40, 2, -105, 10, 14, -52]]",[],8,4,instruct2,1
8,3967.0,48047,mouselab,0,2,"[0.21000000000000002, 0.21, 0.32, 0.26]",161,161,[],"[[-135, 121, -118, 98, -51, -152], [146, 172, -9, -52, 37, -60], [28, 161, 47, 9, 125, 45], [75, 103, 6, -106, 31, -17]]",[],8,1,instruct2,2
8,14987.0,66850,mouselab,0,3,"[0.18, 0.34, 0.29, 0.19]",-85,-85,[],"[[-48, 105, 104, -1, -28, 52], [86, 38, 13, 31, -56, 17], [-32, 15, -11, -15, 112, 2], [-104, -6, -85, -56, -37, 69]]",[],8,2,instruct3,0
8,1898.0,70209,mouselab,0,0,"[0.28, 0.39, 0.11, 0.22]",65,65,[],"[[78, 65, -66, -36, -19, -48], [22, 7, -11, 10, 20, 104], [19, -77, -42, 50, 27, 58], [-29, -45, 82, 71, -17, -52]]",[],8,1,instruct3,1
8,1825.0,73233,mouselab,0,2,"[0.25, 0.23, 0.2, 0.32]",-89,-89,[],"[[-4, -56, 15, 11, 12, -210], [140, -17, 0, -90, -17, 39], [-89, 12, -68, 57, 35, 42], [113, -41, 7, 53, -62, 2]]",[],8,0,instruct3,2
8,1367.0,82417,mouselab,0,0,"[0.3, 0.21, 0.17, 0.32]",-68,-68,[],"[[77, -48, -30, -68, -94, -89], [-34, -28, -34, -12, 62, 22], [22, -5, 105, -167, 141, 35], [69, -45, -26, -178, -96, 91]]",[],8,3,test,0
8,1368.0,84737,mouselab,0,1,"[0.27, 0.32, 0.22, 0.19]",-2,-2,[],"[[5, -37, 116, -58, 4, -30], [-2, 18, 83, 4, -37, 34], [72, 108, 97, -139, 91, -58], [-82, 84, -119, 31, 115, 27]]",[],8,0,test,1
8,985.0,86841,mouselab,0,3,"[0.29000000000000004, 0.25, 0.25, 0.21]",-179,-179,[],"[[-64, 10, -25, -6, -148, -30], [-51, 7, 39, 1, -24, -31], [70, -6, 157, 16, -88, -92], [50, 26, -32, -16, 73, -179]]",[],8,5,test,2
8,729.0,88736,mouselab,0,0,"[0.33, 0.27, 0.18, 0.22]",-23,-23,[],"[[-237, -62, 10, 4, -23, 39], [44, -49, -38, -75, -55, -103], [35, 11, 53, -61, -43, 34], [-4, -27, 32, 52, 176, 8]]",[],8,4,test,3
8,948.0,90489,mouselab,0,1,"[0.23, 0.25, 0.33, 0.19]",-11,-11,[],"[[-23, -156, -94, -110, -107, -33], [139, -33, 57, -11, 7, 45], [-253, -7, 113, 37, 25, 64], [-170, -46, -11, 21, -65, 32]]",[],8,3,test,4
8,1101.0,92449,mouselab,0,0,"[0.22, 0.22, 0.25, 0.31]",33,33,[],"[[31, 24, -49, -53, 33, -22], [17, 72, 9, -39, 57, 9], [-52, -36, -61, -39, 15, 107], [-8, 109, 79, 171, -24, 101]]",[],8,4,test,5
8,754.0,94105,mouselab,0,0,"[0.16, 0.19, 0.2, 0.45]",0,0,[],"[[46, -129, 29, 0, -78, -103], [-32, -120, 125, -84, -1, 40], [69, 55, 108, 169, -193, 8], [-8, -127, 97, 21, -70, 100]]",[],8,3,test,6
8,1074.0,96081,mouselab,0,0,"[0.34, 0.3, 0.16, 0.2]",-61,-61,[],"[[-184, 93, -61, 97, -57, -20], [53, 195, 45, -45, 46, 182], [73, -92, 72, -5, -13, -55], [-132, -100, -35, -47, 158, 112]]",[],8,2,test,7
8,825.0,97801,mouselab,0,1,"[0.17, 0.4, 0.23, 0.2]",71,71,[],"[[51, -21, -70, 26, -9, 118], [4, 16, 20, 71, 35, 0], [10, -156, -21, -41, -15, 29], [12, -74, -153, 8, -2, 31]]",[],8,3,test,8
8,1057.0,100384,mouselab,0,3,"[0.17, 0.29, 0.3, 0.24]",-31,-31,[],"[[105, -31, -104, -11, 58, 158], [20, 75, 26, 148, 129, 37], [9, -82, 168, -129, -14, 4], [-61, 22, 114, -89, -31, 72]]",[],8,4,test,9
10,120238.0,132503,mouselab,0,3,"[0.2, 0.2, 0.1, 0.5]",30,30,[],"[[-17, 7, -44, 1, -10, 59], [62, -111, 93, 26, 0, -54], [76, 75, -86, -28, -29, 66], [30, 172, 22, 71, 67, 143]]",[],8,0,instruct1,0
10,7628.0,143002,mouselab,0,3,"[0.2, 0.2, 0.1, 0.5]",172,172,[],"[[-17, 7, -44, 1, -10, 59], [62, -111, 93, 26, 0, -54], [76, 75, -86, -28, -29, 66], [30, 172, 22, 71, 67, 143]]",[],8,1,instruct1,1
10,2736.0,147442,mouselab,0,3,"[0.2, 0.2, 0.1, 0.5]",22,22,[],"[[-17, 7, -44, 1, -10, 59], [62, -111, 93, 26, 0, -54], [76, 75, -86, -28, -29, 66], [30, 172, 22, 71, 67, 143]]",[],8,2,instruct1,2
10,9154.0,170390,mouselab,0,1,"[0.14, 0.61, 0.14, 0.11]",133,133,[],"[[2, 100, 22, -13, 81, -64], [72, 133, 35, -19, 124, 92], [2, 171, 135, -3, 11, 82], [146, 176, -102, 33, -26, -46]]",[],8,1,instruct2,0
10,5418.0,178831,mouselab,0,1,"[0.04999999999999999, 0.61, 0.01, 0.33]",208,208,[],"[[-28, -116, 81, -6, 30, 94], [-15, -25, 178, -98, 8, 208], [122, -60, 89, -84, -111, 149], [-77, -31, 132, 34, -36, 152]]",[],8,5,instruct2,1
10,5121.0,186024,mouselab,0,0,"[0.7, 0.03, 0.11, 0.16]",74,74,[],"[[65, -170, 74, -50, -4, -60], [100, 48, 169, -130, 146, 3], [-141, 127, 148, 22, 81, -92], [-149, -82, 55, 28, 15, 34]]",[],8,2,instruct2,2
10,17882.0,207570,mouselab,24,1,"[0.15, 0.04, 0.29, 0.52]",-57,-81,"[17, 15, 13]","[[-49, -38, 99, 51, -95, -22], [91, 76, 9, -57, -15, -39], [-18, -31, 26, 239, 1, -62], [-49, -133, -119, 110, -89, -12]]","[11873, 13897, 15771]",8,3,instruct3,0
10,7384.0,222540,mouselab,24,2,"[0.04, 0.58, 0.33, 0.05]",-193,-217,"[0, 9, 23]","[[-135, 97, 44, -93, 103, 38], [100, 11, -26, 114, 130, -96], [20, 63, -38, -117, 13, -193], [18, 22, 14, -9, 78, -1]]","[1799, 3295, 4792]",8,5,instruct3,1
10,6280.0,230661,mouselab,24,3,"[0.03, 0.5, 0.05, 0.42]",19,-5,"[6, 7, 8]","[[-77, 110, -62, 21, 40, -30], [66, -102, 76, -55, -20, -101], [11, 84, 26, -51, 43, 20], [70, 19, 19, 166, -46, 49]]","[1678, 4087, 4991]",8,2,instruct3,2
10,18636.0,259106,mouselab,8,0,"[0.56, 0.01, 0.4, 0.03]",-72,-80,[0],"[[-77, -72, 6, 179, 6, 59], [63, -23, -269, 128, 72, -38], [-18, -3, 89, 43, 129, 84], [91, 87, 34, 135, -49, 152]]",[15426],8,1,test,0
10,1353.0,262506,mouselab,0,3,"[0.01, 0.01, 0.04, 0.94]",-48,-48,[],"[[147, -72, 218, 37, 62, -108], [-28, 5, 49, 96, -50, -7], [131, 16, 10, -1, 83, -20], [43, 96, -143, -48, -2, 76]]",[],8,3,test,1
10,1185.0,267155,mouselab,0,1,"[0.01, 0.47, 0.32, 0.2]",57,57,[],"[[7, 62, -87, 8, 9, -63], [-125, 57, -35, -55, 45, -6], [-34, 42, -6, 15, -27, 2], [9, 61, -9, -20, -69, -23]]",[],8,1,test,2
10,2529.0,272003,mouselab,0,2,"[0.04, 0.01, 0.4, 0.55]",-30,-30,[],"[[-3, -50, 25, -11, 50, -58], [51, -19, 93, 15, -27, -19], [-30, -53, -146, -106, -87, 89], [99, 54, -6, -54, -31, 8]]",[],8,0,test,3
10,1073.0,274756,mouselab,0,2,"[0.18, 0.27, 0.49, 0.06]",-28,-28,[],"[[-88, -129, 59, 44, 141, 73], [57, -36, 0, -184, -58, 115], [-71, 75, 65, -85, 75, -28], [-96, 154, 2, 119, 6, 25]]",[],8,5,test,4
10,1206.0,278226,mouselab,0,1,"[0.72, 0.05, 0.09, 0.14]",-177,-177,[],"[[-68, -48, 127, 101, -11, 21], [40, -18, -177, 60, 24, 52], [43, -9, -133, 97, -118, 56], [1, 14, 28, -118, 105, 18]]",[],8,2,test,5
10,1504.0,283443,mouselab,0,0,"[0.11, 0.74, 0.14, 0.01]",168,168,[],"[[168, -49, 128, -56, -15, -53], [138, -186, 88, -39, -132, -62], [15, -31, 89, -41, 18, -44], [-4, 64, -129, -18, 169, -83]]",[],8,0,test,6
10,1113.0,287332,mouselab,0,1,"[0.13999999999999999, 0.71, 0.03, 0.12]",19,19,[],"[[175, -87, -43, 109, 3, -81], [-9, 32, 19, 42, -187, 113], [-13, -20, 7, -23, 51, 130], [-29, 79, -55, -76, 10, 23]]",[],8,2,test,7
10,944.0,291284,mouselab,0,3,"[0.12, 0.1, 0.01, 0.77]",-9,-9,[],"[[-77, -23, 60, -69, -156, 25], [-44, 23, -92, -95, -112, 42], [-76, 53, -2, 70, 40, 68], [-90, 32, -148, 57, -23, -9]]",[],8,5,test,8
10,1226.0,295045,mouselab,0,0,"[0.82, 0.01, 0.04, 0.13]",-2,-2,[],"[[-20, -133, 9, -2, 32, -23], [11, 132, -35, -16, 48, 5], [-79, 119, 147, -62, 3, 18], [-99, 5, 84, 67, -14, 71]]",[],8,3,test,9
11,14945.0,20750,mouselab,0,3,"[0.2, 0.2, 0.1, 0.5]",30,30,[],"[[-15, 10, 27, -110, -172, -138], [-89, 290, -74, -52, 34, -17], [-150, -82, 70, 274, -22, 107], [235, 30, -276, -77, -17, 42]]",[],0,1,instruct1,0
11,3852.0,26558,mouselab,0,3,"[0.2, 0.2, 0.1, 0.5]",30,30,[],"[[-15, 10, 27, -110, -172, -138], [-89, 290, -74, -52, 34, -17], [-150, -82, 70, 274, -22, 107], [235, 30, -276, -77, -17, 42]]",[],0,1,instruct1,1
11,1664.0,29514,mouselab,0,3,"[0.2, 0.2, 0.1, 0.5]",30,30,[],"[[-15, 10, 27, -110, -172, -138], [-89, 290, -74, -52, 34, -17], [-150, -82, 70, 274, -22, 107], [235, 30, -276, -77, -17, 42]]",[],0,1,instruct1,2
11,1329.0,32465,mouselab,0,2,"[0.33999999999999997, 0.23, 0.19, 0.24]",-102,-102,[],"[[48, 200, -145, -25, 70, 223], [194, 92, 209, -3, 115, 229], [-259, -19, -102, -173, -41, 30], [-70, 156, 24, 42, 10, 228]]",[],0,2,instruct2,0
11,1400.0,35603,mouselab,0,1,"[0.21000000000000002, 0.43, 0.18, 0.18]",207,207,[],"[[-96, 62, -70, -28, 111, -27], [-5, 89, -223, -122, 207, 182], [13, 22, -69, 126, 196, 146], [-75, -2, -348, -92, 273, 254]]",[],0,4,instruct2,1
11,1244.0,38150,mouselab,0,0,"[0.21, 0.36, 0.13, 0.3]",198,198,[],"[[-177, 47, -122, 177, 198, -60], [-17, -3, -68, -104, 35, -156], [-176, -1, 79, -213, 99, -84], [52, 245, 51, 127, 278, 27]]",[],0,4,instruct2,2
11,21541.0,61230,mouselab,0,1,"[0.22, 0.22, 0.27, 0.29]",144,144,"[10, 13, 1, 7, 0, 6, 12, 18, 19, 20, 14, 8, 2, 3, 9, 21, 15, 16, 22, 4, 5, 11, 17, 23]","[[-113, -169, 75, 70, 132, -136], [77, -4, 144, -211, -92, -101], [-76, -159, 43, -183, -154, 101], [125, 10, 121, 193, 46, 3]]","[3518, 4650, 5339, 6987, 10271, 10788, 11170, 11698, 12043, 12363, 12769, 13064, 13372, 13779, 14049, 14332, 14873, 15206, 15574, 16299, 16755, 17136, 17554, 18355]",0,2,instruct3,0
11,11001.0,73880,mouselab,0,3,"[0.28, 0.23, 0.2, 0.29]",53,53,"[2, 8, 14, 13, 7, 1, 6, 12, 0, 10, 9, 11, 4, 15, 21, 22, 17, 16]","[[-38, 60, -33, 24, -127, -190], [185, -396, 54, -56, 275, -211], [-140, 91, -366, -5, 230, 39], [184, 164, 145, 174, 53, 162]]","[1648, 1931, 2596, 2940, 3248, 3580, 4295, 4822, 5241, 5844, 6262, 6841, 7295, 8083, 8674, 9055, 9928, 10260]",0,4,instruct3,1
11,4714.0,79981,mouselab,0,2,"[0.17, 0.33, 0.27, 0.23]",-76,-76,"[2, 8, 14, 20, 9, 3]","[[115, -166, 31, -292, 301, 278], [24, 256, 47, -265, 164, 10], [-99, 39, -76, 266, -73, -61], [4, 0, 207, -223, -168, 130]]","[1327, 1917, 2410, 2794, 3272, 4057]",0,2,instruct3,2
11,10418.0,95277,mouselab,0,2,"[0.15, 0.33, 0.25, 0.27]",53,53,"[1, 7, 0, 6, 12, 13, 18, 19, 20, 14, 8, 2, 3, 9, 15, 21, 22, 10, 4, 5, 11, 16, 17, 23]","[[-81, -173, 144, -186, 3, 362], [44, -19, -252, 46, -13, -68], [147, 85, -115, -224, 77, 53], [-105, -148, 176, 245, -11, 10]]","[720, 1224, 1593, 1888, 2147, 2786, 3082, 3338, 3585, 4102, 4373, 4758, 5300, 5559, 5816, 6297, 6580, 6838, 7563, 7922, 8240, 8671, 9335, 9692]",0,5,test,0
11,2696.0,100963,mouselab,0,2,"[0.21, 0.29, 0.23, 0.27]",54,54,"[0, 6, 12, 18]","[[308, -177, -324, 415, 284, 136], [81, -29, -112, 210, -152, -137], [54, 137, -106, 226, 62, 138], [125, -33, -70, 43, 25, -302]]","[997, 1255, 1526, 2055]",0,0,test,1
11,14310.0,116750,mouselab,0,1,"[0.24, 0.19, 0.2, 0.37]",76,76,"[1, 0, 6, 7, 2, 3, 5, 11, 4, 10, 9, 8, 14, 15, 16, 17, 23, 22, 21, 20, 19, 13, 12, 18]","[[-133, 179, -175, 65, 153, -255], [291, -76, -7, 76, -310, 62], [-160, -76, 115, -143, 181, -140], [-150, -28, 60, 215, -266, 74]]","[784, 1142, 1573, 1856, 2238, 3088, 3334, 4798, 5291, 5869, 6190, 6803, 7099, 7443, 8010, 8355, 8687, 8933, 9461, 9866, 10225, 10532, 10987, 11357]",0,3,test,2
11,11763.0,129768,mouselab,0,2,"[0.25, 0.23, 0.28, 0.24]",79,79,"[0, 12, 18, 6, 1, 7, 13, 19, 20, 14, 8, 2, 3, 9, 10, 4, 5, 11, 17, 22, 23, 16, 15, 21]","[[-177, -22, 92, -55, -49, 144], [18, -20, 156, -217, 39, 280], [-240, -63, 79, 9, 138, -133], [-352, -158, 66, 121, 109, 94]]","[1008, 1278, 1623, 2373, 2841, 3136, 3431, 3875, 4208, 4540, 4945, 5327, 6040, 6348, 6889, 7234, 7923, 8217, 8870, 9257, 9521, 9990, 10286, 10827]",0,2,test,3
11,4021.0,136817,mouselab,0,2,"[0.21, 0.28, 0.23, 0.28]",-10,-10,"[6, 8, 9, 10, 11, 7]","[[-56, -37, 203, -265, 129, -14], [-99, 156, 70, -219, 267, 44], [-45, -10, -125, 191, 70, 172], [-204, 153, -52, -228, -20, -56]]","[932, 1301, 2112, 2520, 2839, 3649]",0,1,test,4
11,12716.0,151278,mouselab,0,3,"[0.17, 0.17, 0.37, 0.29]",138,138,"[0, 1, 2, 3, 4, 5, 11, 10, 9, 8, 7, 6, 12, 13, 14, 15, 16, 17, 23, 22, 21, 20, 19, 18]","[[180, -208, -56, -146, 37, -74], [-4, 87, 117, -38, -110, -101], [361, -212, -169, 78, 368, 145], [138, -43, 114, 128, 83, -107]]","[972, 1280, 1576, 2042, 2412, 2793, 3235, 3507, 3899, 4332, 4652, 5057, 5488, 6436, 6719, 7125, 7618, 8307, 8763, 9045, 9376, 9832, 10164, 11347]",0,0,test,5
11,11811.0,164543,mouselab,0,3,"[0.28, 0.22, 0.24, 0.26]",87,87,"[6, 0, 1, 7, 12, 13, 18, 19, 20, 14, 8, 2, 3, 9, 15, 21, 22, 16, 10, 4, 5, 11, 17, 23]","[[-327, 115, 75, 127, -37, -32], [-326, 97, 85, 38, 137, -173], [-29, -92, -82, -68, 52, 227], [29, 87, -210, -185, -67, -213]]","[1009, 1500, 1846, 2127, 2547, 2841, 3249, 3740, 4010, 4356, 4846, 5303, 5635, 5979, 6472, 6841, 7148, 7480, 8021, 8846, 9253, 9584, 10027, 10555]",0,1,test,6
11,11765.0,180343,mouselab,0,1,"[0.2, 0.19, 0.3, 0.31]",-296,-296,"[12, 13, 14, 15, 16, 17, 11, 10, 9, 8, 7, 6, 18, 19, 20, 21, 22, 23, 5, 4, 3, 2, 1, 0]","[[-229, 332, -52, 254, -234, -21], [-147, -296, -43, -212, 3, 116], [86, 97, -97, 184, 340, -38], [-108, 105, -3, 372, 123, -26]]","[1218, 1513, 1820, 2288, 2583, 3126, 3421, 3714, 4254, 4726, 5157, 5474, 6140, 6399, 6816, 7247, 7543, 7948, 8798, 9031, 9635, 9929, 10398, 10779]",0,1,test,7
11,12012.0,196205,mouselab,0,2,"[0.2, 0.49, 0.17, 0.14]",75,75,"[7, 6, 0, 1, 2, 3, 4, 5, 11, 10, 9, 8, 14, 15, 16, 17, 23, 22, 21, 20, 19, 13, 12, 18]","[[156, -153, 182, -69, -192, 245], [208, -21, 51, 112, -85, -101], [75, -40, -103, -28, -132, 84], [-162, -329, -37, 73, -29, -145]]","[1882, 2534, 3051, 3469, 3901, 4221, 4712, 5081, 5450, 5709, 6004, 6434, 6878, 7186, 7592, 8110, 8394, 8639, 8970, 9366, 9696, 10066, 10410, 10755]",0,0,test,8
11,25413.0,223402,mouselab,0,3,"[0.19, 0.18, 0.28, 0.35]",89,89,"[18, 6, 0, 1, 7, 13, 12, 19, 20, 14, 8, 2, 3, 9, 10, 4, 5, 11, 17, 16, 15, 21, 22, 23]","[[55, -140, -22, -166, 153, 3], [247, -227, 72, -26, 154, 40], [274, -165, 204, -39, -48, 48], [-226, -200, 89, -66, -90, -75]]","[15223, 15543, 16244, 16601, 16872, 17180, 17500, 18139, 18447, 18878, 19271, 19690, 20060, 20342, 21019, 21326, 21707, 22003, 22446, 22754, 23124, 23480, 23763, 24022]",0,2,test,9
5,3349.0,8815,mouselab,0,1,"[0.2, 0.2, 0.1, 0.5]",-162,-162,[],"[[-35, 38, 28, -24, 73, 69], [-162, 45, 70, 24, -79, 27], [127, 130, -93, -33, -20, -9], [-42, -50, -21, 98, 158, 37]]",[],0,0,instruct1,0
5,1946.0,11656,mouselab,0,1,"[0.2, 0.2, 0.1, 0.5]",45,45,[],"[[-35, 38, 28, -24, 73, 69], [-162, 45, 70, 24, -79, 27], [127, 130, -93, -33, -20, -9], [-42, -50, -21, 98, 158, 37]]",[],0,1,instruct1,1
5,1024.0,14133,mouselab,0,3,"[0.2, 0.2, 0.1, 0.5]",-21,-21,[],"[[-35, 38, 28, -24, 73, 69], [-162, 45, 70, 24, -79, 27], [127, 130, -93, -33, -20, -9], [-42, -50, -21, 98, 158, 37]]",[],0,2,instruct1,2
5,5676.0,21165,mouselab,0,1,"[0.04, 0.45, 0.04, 0.47]",95,95,[],"[[-135, 116, 29, 42, -2, 82], [61, 95, -56, 4, 46, -216], [12, 84, -86, 75, 74, 45], [-10, 171, -68, -67, 20, 159]]",[],0,1,instruct2,0
5,1753.0,24298,mouselab,0,3,"[0.08, 0.14, 0.2, 0.58]",150,150,[],"[[191, 45, -36, -19, 158, -103], [139, -58, 46, 111, -85, -3], [33, 3, -21, -36, -2, 16], [150, 28, 116, -5, -211, 22]]",[],0,0,instruct2,1
5,3311.0,28647,mouselab,0,1,"[0.039999999999999994, 0.89, 0.05, 0.02]",120,120,[],"[[-204, 149, -18, -135, -82, 165], [37, 14, -13, -9, 87, 120], [-117, 25, 32, 15, 3, 40], [47, 61, -19, -75, -18, 97]]",[],0,5,instruct2,2
5,12603.0,42275,mouselab,0,3,"[0.18, 0.24, 0.24, 0.34]",84,84,"[0, 1, 2, 7, 8, 14, 20, 3, 9, 10, 5, 11, 4, 16, 17, 23, 22, 21, 15, 13, 19, 18, 12, 6]","[[-169, -3, 67, 52, 99, -57], [56, -13, -28, -105, -37, 55], [37, 60, 33, 29, -58, -5], [84, 104, 51, -19, 16, -149]]","[3269, 3654, 3995, 4685, 5003, 5272, 5509, 5952, 6193, 7213, 7573, 7886, 8145, 8462, 8711, 8993, 9244, 9506, 9740, 10119, 10400, 10619, 10842, 11126]",0,0,instruct3,0
5,7726.0,50933,mouselab,0,3,"[0.03, 0.02, 0.51, 0.44]",-67,-67,"[0, 6, 12, 18, 19, 13, 7, 1, 2, 8, 14, 20, 21, 15, 9, 3, 4, 10, 16, 22, 23, 17, 11, 5]","[[-43, 11, -89, -98, 132, 10], [54, -6, 70, -87, -98, 90], [-23, -95, -67, 12, -43, 84], [-143, -61, -125, 13, 61, -67]]","[949, 1228, 1482, 1698, 1970, 2191, 2399, 2604, 2891, 3194, 3590, 3995, 4424, 4748, 5022, 5240, 5502, 5742, 5982, 6256, 6512, 6776, 6985, 7188]",0,5,instruct3,1
5,8644.0,62472,mouselab,0,0,"[0.65, 0.08, 0.26, 0.01]",-30,-30,"[0, 6, 12, 18, 19, 13, 7, 1, 2, 8, 14, 20, 21, 15, 9, 3, 4, 10, 22, 16, 17, 23, 11, 5]","[[-50, 117, 86, -99, -30, -73], [-17, 74, 1, -68, 73, 18], [-36, -33, 108, -41, 49, -20], [51, 96, -10, -45, 116, 151]]","[1063, 1382, 1827, 2260, 2606, 2918, 3244, 3514, 3816, 4110, 4385, 4690, 4976, 5238, 5433, 5678, 5917, 6196, 6415, 6970, 7219, 7481, 7771, 8037]",0,4,instruct3,2
5,4714.0,71500,mouselab,0,3,"[0.06999999999999999, 0.33, 0.49, 0.11]",-51,-51,"[12, 6, 7, 13, 14, 8, 9, 15, 16, 10, 11, 17]","[[-36, -91, 124, -60, -7, 70], [51, 71, 13, -4, -69, -38], [-2, -36, -12, 187, 61, -15], [59, 15, -41, -51, -153, 7]]","[1338, 1565, 1794, 2011, 2213, 2449, 2669, 2915, 3133, 3370, 3603, 3821]",0,3,test,0
5,5821.0,78375,mouselab,0,2,"[0.07, 0.3, 0.48, 0.15]",188,188,"[6, 12, 13, 7, 8, 14, 15, 9, 10, 16, 17, 11, 3, 4, 21, 22]","[[81, 16, -68, -23, 56, -182], [-2, -61, 9, 147, 78, -18], [-14, -90, -87, 107, 188, -135], [13, 12, -104, 127, -1, 136]]","[1034, 1306, 1508, 1750, 1960, 2164, 2388, 2589, 2824, 3051, 3258, 3471, 3949, 4174, 4728, 5042]",0,4,test,1
5,9478.0,88998,mouselab,0,2,"[0.2699999999999999, 0.07, 0.56, 0.1]",-91,-91,"[12, 13, 14, 15, 16, 17, 0, 1, 2, 3, 4, 5, 10, 8, 7, 6, 18, 19, 20, 21, 22, 23, 11, 9]","[[-25, -45, 25, -74, -14, -11], [-112, 56, 122, 83, -2, 48], [86, -123, -91, -50, 41, 8], [94, -82, 117, -26, -140, -141]]","[1237, 1542, 1868, 2205, 2485, 2719, 3323, 3546, 3813, 4059, 4316, 4545, 4904, 5239, 5921, 6174, 6501, 6708, 6969, 7427, 7694, 7904, 8300, 8605]",0,2,test,2
5,3809.0,93747,mouselab,0,3,"[0.09, 0.1, 0.01, 0.8]",136,136,"[18, 19, 20, 21, 22, 23]","[[-122, 86, -29, 66, 30, -130], [17, -131, -59, -27, 86, 146], [57, 48, -14, 92, -52, -50], [92, 85, 108, 36, 136, 58]]","[1841, 2050, 2291, 2536, 2824, 3110]",0,4,test,3
5,9771.0,104728,mouselab,0,1,"[0.25, 0.08, 0.27, 0.4]",-4,-4,"[18, 12, 0, 1, 13, 19, 20, 14, 2, 3, 15, 21, 22, 16, 4, 5, 17, 23]","[[-43, 2, -11, -3, -95, -6], [-73, -8, -4, 20, -34, 58], [-116, -60, 109, 11, 6, -68], [37, 128, 16, 40, 17, 121]]","[1815, 2064, 2369, 2618, 2945, 3198, 3412, 3629, 4124, 4395, 4736, 4962, 5210, 5417, 5763, 6010, 6324, 6660]",0,2,test,4
5,6539.0,112279,mouselab,0,2,"[0.20000000000000012, 0.47, 0.23, 0.1]",103,103,"[6, 12, 13, 7, 1, 0, 2, 14, 15, 9, 8, 3, 4, 10, 16, 17, 11, 5]","[[-54, 36, -65, -7, -103, 1], [-78, 106, -19, -44, -42, 1], [-59, 103, -83, -51, 25, 41], [-8, 128, -45, 15, 175, 59]]","[1629, 1940, 2167, 2386, 2644, 2872, 3189, 3636, 3874, 4103, 4291, 4545, 4772, 5036, 5244, 5446, 5680, 5924]",0,1,test,5
5,5906.0,119796,mouselab,0,1,"[0.009999999999999992, 0.54, 0.02, 0.43]",133,133,"[6, 18, 19, 7, 8, 20, 21, 9, 10, 22, 23, 11]","[[53, -9, 64, 33, -1, 23], [-65, -40, 133, -37, -105, -36], [-91, 44, -85, -137, -23, -87], [-13, -72, -123, -6, 73, -24]]","[1100, 1416, 1642, 1903, 2139, 2442, 2676, 2947, 3188, 3516, 3707, 4013]",0,2,test,6
5,4478.0,125213,mouselab,0,3,"[0.01, 0.06, 0.55, 0.38]",143,143,"[12, 18, 19, 13, 14, 20, 21, 15, 16, 22, 23, 17]","[[-13, -27, 28, -101, 82, 144], [30, 63, -54, -193, -9, -4], [-19, -88, 62, -2, -139, -38], [-52, 21, -150, 8, 143, -92]]","[1165, 1431, 1613, 1814, 2038, 2253, 2467, 2702, 2949, 3166, 3381, 3628]",0,4,test,7
5,3408.0,129481,mouselab,0,3,"[0.01, 0.13, 0.02, 0.84]",69,69,"[18, 19, 20, 21, 22, 23]","[[-50, -51, -82, -27, 41, 81], [-24, -22, 86, -44, -45, 105], [-2, 127, 6, 61, -19, 30], [46, -74, -69, 48, 69, 54]]","[1082, 1610, 1854, 2104, 2371, 2646]",0,4,test,8
5,3502.0,133999,mouselab,0,3,"[0.12000000000000001, 0.48, 0.25, 0.15]",46,46,"[6, 7, 8, 9, 10, 11]","[[-84, 57, -58, -36, 72, -79], [-77, 33, 39, -55, 41, 100], [-64, -63, 91, -99, -130, -57], [-78, -49, 38, 97, -29, 46]]","[1254, 1473, 1720, 1965, 2456, 2811]",0,5,test,9
0,40840.0,47521,mouselab,0,2,"[0.2, 0.2, 0.1, 0.5]",101,101,[],"[[132, 69, -122, -103, 97, 143], [0, 56, -129, 381, -33, 8], [101, -258, 79, -57, -169, 25], [-38, 67, -308, -149, -11, 180]]",[],0,0,instruct1,0
0,1640.0,109543,mouselab,0,1,"[0.2, 0.2, 0.1, 0.5]",56,56,[],"[[132, 69, -122, -103, 97, 143], [0, 56, -129, 381, -33, 8], [101, -258, 79, -57, -169, 25], [-38, 67, -308, -149, -11, 180]]",[],0,1,instruct1,1
0,3049.0,113611,mouselab,0,0,"[0.2, 0.2, 0.1, 0.5]",-122,-122,[],"[[132, 69, -122, -103, 97, 143], [0, 56, -129, 381, -33, 8], [101, -258, 79, -57, -169, 25], [-38, 67, -308, -149, -11, 180]]",[],0,2,instruct1,2
0,8996.0,125123,mouselab,0,0,"[0.92, 0.01, 0.06, 0.01]",391,391,[],"[[-114, 102, -201, 391, 194, 347], [105, 17, 307, 341, 189, 41], [72, -145, 76, 261, -311, 224], [-84, -23, 216, 245, -143, -319]]",[],0,3,instruct2,0
0,3297.0,131315,mouselab,0,0,"[0.3999999999999999, 0.02, 0.02, 0.56]",299,299,[],"[[266, 92, 147, 299, -21, -79], [-123, 184, 59, 303, 95, 269], [-209, -178, 13, 205, -321, 142], [85, 203, 23, 248, -195, -65]]",[],0,3,instruct2,1
0,3278.0,136636,mouselab,0,1,"[0.32, 0.41, 0.16, 0.11]",101,101,[],"[[16, 168, -59, 19, 225, -28], [68, 11, -202, -279, 101, -62], [-117, 46, 88, -243, 253, 187], [76, 131, -60, 167, 189, -17]]",[],0,4,instruct2,2
0,3680.0,142687,mouselab,0,3,"[0.54, 0.01, 0.15, 0.3]",0,0,[],"[[44, -50, -65, -263, 181, 15], [189, -177, 168, -135, 320, 42], [-40, 119, -197, 201, 119, 56], [133, 279, 69, 0, 179, -130]]",[],0,3,instruct3,0
0,825.0,145143,mouselab,0,2,"[0.18000000000000002, 0.51, 0.21, 0.1]",-19,-19,[],"[[-45, -176, 206, 134, -114, 104], [4, -21, 231, -28, -117, -37], [-6, -73, -88, -10, -19, -278], [-31, 115, 181, 7, -149, -133]]",[],0,4,instruct3,1
0,502.0,146702,mouselab,0,2,"[0.01, 0.08, 0.81, 0.1]",-302,-302,[],"[[5, -335, 447, -100, -164, -76], [177, 103, -51, -108, -44, 47], [-27, 63, -302, -359, 131, 62], [326, -38, -8, 109, 33, -78]]",[],0,2,instruct3,2
0,1079.0,155494,mouselab,0,0,"[0.62, 0.22, 0.15, 0.01]",-113,-113,[],"[[85, -46, 152, -46, -113, -63], [108, -54, 170, -35, 169, 76], [-53, 94, 267, 58, -142, -326], [202, -251, 11, 17, -77, -15]]",[],0,4,test,0
0,591.0,157864,mouselab,0,0,"[0.51, 0.05, 0.4, 0.04]",109,109,[],"[[26, 105, 256, -43, 109, -243], [62, 339, 202, 258, 167, 136], [110, 135, -11, 150, -64, 160], [-41, 148, -65, 14, -288, -453]]",[],0,4,test,1
0,551.0,160063,mouselab,0,3,"[0.26, 0.26, 0.28, 0.2]",-64,-64,[],"[[219, 1, -44, 189, -147, -102], [204, -143, 114, -133, 101, -32], [102, -107, -146, -46, 166, -141], [189, -150, 25, -64, -101, 175]]",[],0,3,test,2
0,11784.0,173442,mouselab,0,0,"[0.54, 0.08, 0.24, 0.14]",162,162,"[2, 8, 14, 20, 19, 13, 7, 1, 0, 6, 12, 18, 21, 15, 9, 3, 4, 10, 16, 22, 5, 11, 17, 23]","[[-106, 25, 162, 236, -45, -122], [145, 43, 142, -45, -20, 96], [-287, -64, -9, -2, 96, -309], [-158, 136, 35, 195, 61, 87]]","[741, 2033, 2515, 3305, 4299, 4657, 5000, 5352, 5649, 5986, 6292, 6630, 7236, 7506, 7821, 8182, 8467, 8787, 9103, 9410, 9897, 10208, 10492, 10810]",0,2,test,3
0,10835.0,186996,mouselab,0,3,"[0.25, 0.19, 0.07, 0.49]",94,94,"[0, 1, 2, 3, 4, 5, 11, 10, 9, 15, 21, 20, 14, 8, 7, 13, 19, 18, 12, 6, 17, 23]","[[7, -186, 84, -238, -15, 84], [16, 118, 52, 14, -28, 93], [-153, 311, -66, -170, 108, 21], [-80, 94, -143, 9, -199, 152]]","[958, 1302, 1625, 1954, 2266, 2552, 2860, 3142, 3461, 3850, 4132, 4429, 4729, 5017, 5277, 5572, 5888, 6180, 6455, 6749, 8244, 8494]",0,1,test,4
0,10422.0,201979,mouselab,0,3,"[0.05, 0.01, 0.01, 0.93]",343,343,"[0, 1, 2, 3, 4, 5, 11, 10, 9, 8, 7, 6, 12, 15, 21, 20, 14, 13, 19, 18, 17, 16, 22, 23]","[[82, 106, 88, -71, 170, -157], [-97, -473, -30, 201, -240, -79], [56, 184, -87, 13, 43, 41], [116, 343, -82, -2, 68, -44]]","[809, 1095, 1419, 1946, 2275, 2644, 2958, 3236, 3580, 3919, 4266, 4755, 5124, 5662, 5949, 6409, 6683, 6948, 7212, 7498, 8435, 8778, 9104, 9446]",0,1,test,5
0,10628.0,213994,mouselab,0,0,"[0.89, 0.03, 0.01, 0.07]",238,238,"[0, 1, 2, 3, 4, 5, 11, 6, 7, 9, 8, 16, 17, 10, 22, 23, 21, 15, 14, 20, 19, 13, 12, 18]","[[238, 61, -52, 125, 87, -7], [136, -124, -3, 55, -321, 3], [-222, -87, 50, 133, 28, -86], [-157, 6, -31, -132, 28, 16]]","[847, 1182, 1618, 2007, 2329, 2653, 2979, 3637, 3924, 4204, 4721, 5447, 5915, 6219, 6533, 6845, 7226, 7521, 7803, 8089, 8374, 8650, 8902, 9231]",0,0,test,6
0,12292.0,227808,mouselab,0,3,"[0.04000000000000001, 0.1, 0.27, 0.59]",119,119,"[0, 6, 12, 18, 19, 20, 21, 23, 22, 17, 11, 5, 4, 10, 16, 15, 9, 3, 2, 8, 14, 13, 7, 1]","[[44, 18, 52, -69, -10, -27], [-240, -175, -7, -69, 30, 6], [61, 11, -139, 200, 41, -208], [-135, -38, 1, -87, -101, 119]]","[818, 1137, 1483, 1816, 2188, 2481, 2892, 3216, 3646, 4514, 4995, 5313, 6043, 6337, 6624, 7750, 8077, 8461, 8963, 9215, 9651, 10035, 10270, 10612]",0,5,test,7
0,11245.0,241275,mouselab,0,2,"[0.22, 0.04, 0.47, 0.27]",358,358,"[0, 12, 18, 1, 2, 3, 4, 13, 15, 14, 16, 17, 5, 21, 20, 19, 9, 22, 23]","[[13, 109, 25, 166, -137, 98], [30, 283, -74, -62, 106, -8], [168, -278, 67, 358, 182, 72], [21, -37, 313, 49, -101, -183]]","[972, 1604, 2057, 2925, 3241, 3587, 3868, 5332, 5615, 6058, 6406, 6753, 7190, 7632, 8100, 8385, 8781, 9441, 10241]",0,3,test,8
0,12916.0,255835,mouselab,0,0,"[0.65, 0.13, 0.19, 0.03]",209,209,"[0, 6, 12, 19, 18, 13, 7, 1, 2, 8, 14, 20, 21, 15, 9, 3, 4, 10, 22, 16, 5, 11, 17, 23]","[[-91, -97, 134, 13, 209, 127], [-110, -173, 182, 279, -24, -29], [-299, -52, -292, -270, -21, -78], [276, -34, -30, 5, -287, -85]]","[1870, 2291, 2630, 3338, 3681, 4009, 4396, 4742, 5088, 5403, 5718, 6053, 6377, 6667, 7007, 7311, 7757, 8061, 8380, 9014, 9372, 9716, 10070, 10468]",0,4,test,9
13,58567.0,67334,mouselab,0,0,"[0.2, 0.2, 0.1, 0.5]",38,38,[],"[[38, 102, 32, 129, -46, 105], [-65, 22, -187, 59, 34, -62], [306, -43, 40, -151, 71, 159], [257, -61, -107, -144, 223, -156]]",[],0,0,instruct1,0
13,3830.0,94739,mouselab,0,0,"[0.2, 0.2, 0.1, 0.5]",102,102,[],"[[38, 102, 32, 129, -46, 105], [-65, 22, -187, 59, 34, -62], [306, -43, 40, -151, 71, 159], [257, -61, -107, -144, 223, -156]]",[],0,1,instruct1,1
13,4542.0,103215,mouselab,0,3,"[0.2, 0.2, 0.1, 0.5]",-107,-107,[],"[[38, 102, 32, 129, -46, 105], [-65, 22, -187, 59, 34, -62], [306, -43, 40, -151, 71, 159], [257, -61, -107, -144, 223, -156]]",[],0,2,instruct1,2
13,8981.0,125906,mouselab,0,1,"[0.31, 0.17, 0.29, 0.23]",293,293,[],"[[11, 208, 168, 233, -199, -5], [81, 233, 26, 293, 114, 47], [149, 94, -334, 186, -63, -438], [137, -48, 101, 193, 155, 53]]",[],0,3,instruct2,0
13,4774.0,138127,mouselab,0,2,"[0.29, 0.22, 0.35, 0.14]",138,138,[],"[[22, 201, 159, -100, -258, 73], [-1, 69, -263, -10, -190, -180], [-69, 138, 91, 19, 15, 37], [-64, 0, -79, -155, -96, -47]]",[],0,1,instruct2,1
13,10649.0,154892,mouselab,0,1,"[0.23, 0.2, 0.2, 0.37]",232,232,[],"[[160, -69, -48, 11, 140, -231], [232, -157, 166, 9, -135, 147], [346, 288, -351, -4, 135, -30], [184, 164, 81, 72, -155, -74]]",[],0,0,instruct2,2
13,60018.0,217623,mouselab,0,2,"[0.34, 0.18, 0.21, 0.27]",-271,-271,"[1, 0, 2, 6, 13, 18, 8]","[[-356, 236, 106, -104, -104, 385], [-67, -21, -203, -88, -36, -31], [-271, 142, -391, -93, -129, 111], [90, -36, 44, -86, -216, 225]]","[17805, 22239, 25081, 47877, 49956, 53243, 56293]",0,0,instruct3,0
13,19462.0,239627,mouselab,0,1,"[0.23, 0.24, 0.19, 0.34]",70,70,"[3, 9, 15, 2, 14, 13]","[[256, 163, -77, 40, 89, -157], [-18, 71, 81, 70, -172, 42], [-315, 91, 86, -73, 206, 24], [8, 6, 24, -12, -399, 66]]","[2950, 4505, 5960, 10427, 13428, 16398]",0,3,instruct3,1
13,11626.0,255769,mouselab,0,3,"[0.23, 0.2, 0.28, 0.29]",206,206,"[5, 23, 11]","[[8, -57, 215, -4, 196, 19], [146, 53, -126, 71, 18, -168], [-158, -198, 55, 41, 250, -132], [17, -276, -71, -168, 232, 206]]","[2137, 4821, 8119]",0,5,instruct3,2
13,29751.0,293119,mouselab,0,2,"[0.3, 0.15, 0.24, 0.31]",206,206,"[0, 6, 1, 8, 2, 3, 4, 5, 9, 10, 11, 7, 12, 13, 14, 18, 19, 20]","[[55, 26, 210, -82, -158, 154], [-122, -64, 42, -32, -232, -98], [47, -45, 206, 135, -67, -65], [-187, -195, -67, -178, -1, -286]]","[4353, 5889, 8523, 10703, 11833, 13763, 14725, 15775, 16943, 17834, 18755, 20083, 21003, 21836, 22569, 23947, 25659, 28482]",0,2,test,0
13,11587.0,308260,mouselab,0,0,"[0.31, 0.21, 0.27, 0.21]",1,1,"[1, 7, 13, 19, 2, 14, 8]","[[-2, 195, 1, -60, 188, 216], [24, -50, 94, 98, 175, 82], [-164, -19, 77, -189, 251, -76], [255, -162, 84, -4, -79, 360]]","[2018, 2840, 4205, 5108, 6395, 7545, 8435]",0,2,test,1
13,7113.0,319947,mouselab,0,3,"[0.19, 0.17, 0.41, 0.23]",66,66,"[5, 23, 17, 11]","[[141, 226, 110, -91, -50, -4], [7, -122, 230, -17, 119, 296], [-82, -89, 7, 6, 37, -114], [37, 10, -213, 356, -56, 66]]","[1625, 2673, 4615, 5457]",0,5,test,2
13,5982.0,330061,mouselab,0,3,"[0.11, 0.29, 0.36, 0.24]",36,36,"[2, 8, 14, 20]","[[183, -4, 133, -277, -24, 20], [68, -74, 12, -233, -56, 58], [214, 83, 41, -274, -13, 28], [-223, -110, 36, 114, -399, -100]]","[1415, 2346, 3564, 4465]",0,2,test,3
13,24403.0,357076,mouselab,0,2,"[0.17, 0.26, 0.29, 0.28]",-60,-60,"[0, 6, 12, 18, 1, 7, 13, 19, 2, 8, 14, 20, 15, 9, 3, 21, 22, 16, 10, 4, 5, 11, 17, 23]","[[161, -123, 44, -108, 34, 152], [0, 210, 154, -227, 5, 34], [-138, -45, -60, 125, -99, -281], [-97, -118, 130, -44, -262, 140]]","[2036, 3671, 4463, 5374, 6682, 7355, 8039, 8970, 10423, 11751, 12563, 13207, 13969, 14653, 15098, 15812, 16446, 16822, 17269, 17773, 18199, 18724, 19328, 19813]",0,2,test,4
13,9953.0,369248,mouselab,0,2,"[0.33, 0.27, 0.26, 0.14]",212,212,"[0, 1, 15, 17, 11, 19, 12, 2]","[[64, 3, -254, 10, 149, -165], [-345, -34, -80, -210, 18, -166], [40, 212, 49, 67, 150, 48], [96, 218, 131, 129, -94, 142]]","[1712, 2692, 3702, 4495, 4989, 5683, 6386, 7951]",0,1,test,5
13,43488.0,415350,mouselab,0,1,"[0.28, 0.22, 0.24, 0.26]",97,97,"[19, 8, 22, 21, 0, 11, 13, 10, 15, 12, 23, 14, 7, 3, 9, 4, 5, 17, 16, 20, 18, 6, 1, 2]","[[-327, 115, 75, 127, -37, -32], [-326, 97, 85, 38, 137, -173], [-29, -92, -82, -68, 52, 227], [29, 87, -210, -185, -67, -213]]","[3760, 4701, 6021, 7584, 8684, 9981, 11903, 13082, 14290, 16498, 18181, 20260, 21845, 23132, 24360, 26212, 27521, 28520, 29442, 30738, 31779, 32700, 33879, 34790]",0,1,test,6
13,28655.0,446222,mouselab,0,2,"[0.21, 0.28, 0.23, 0.28]",70,70,"[18, 19, 20, 21, 9, 0, 7, 17, 23, 5, 16, 14, 3, 1, 4, 22, 8, 2, 10]","[[-56, -37, 203, -265, 129, -14], [-99, 156, 70, -219, 267, 44], [-45, -10, -125, 191, 70, 172], [-204, 153, -52, -228, -20, -56]]","[1902, 2862, 3526, 4190, 5219, 6705, 7734, 9092, 11032, 12241, 13410, 14658, 16177, 17956, 19362, 20937, 22948, 23937, 26979]",0,4,test,7
13,36656.0,485373,mouselab,0,2,"[0.19, 0.3, 0.21, 0.3]",12,12,"[14, 6, 21, 11, 23, 9, 18, 13, 1, 4, 2, 5, 16, 19, 20, 17, 10, 22, 15, 3, 8, 7, 0, 12]","[[325, -66, -223, 222, -287, -226], [24, -267, -21, -19, 116, -181], [-137, -167, -93, -97, 12, -331], [-226, 73, -3, 46, 6, -8]]","[2185, 4136, 6355, 7376, 8407, 9297, 10378, 11250, 12468, 13478, 14596, 15766, 16955, 20490, 22177, 24293, 25462, 26711, 27908, 29027, 30652, 32247, 33207, 34406]",0,4,test,8
13,17332.0,504060,mouselab,0,1,"[0.27, 0.2, 0.23, 0.3]",101,101,"[23, 21, 19, 8, 7, 6, 17, 10, 3, 1, 5, 9, 2, 14, 13, 18, 0, 12, 16, 15, 4, 22, 20, 11]","[[93, -182, -22, 36, 86, 152], [-99, 115, 101, 276, -154, -1], [233, -6, 80, -72, 38, -349], [295, 226, 207, -25, -79, -331]]","[1810, 2305, 3384, 5079, 5505, 5969, 6584, 7089, 7911, 8456, 9179, 9733, 10307, 10802, 11199, 11972, 12506, 13081, 13714, 14111, 14636, 15121, 15715, 16309]",0,2,test,9
14,46713.0,67398,mouselab,0,3,"[0.2, 0.2, 0.1, 0.5]",-111,-111,[],"[[198, 437, 172, -50, -57, -166], [-35, -18, 70, 148, 137, -124], [249, 123, 65, 168, 93, 17], [-111, -114, 185, 8, 145, 132]]",[],8,0,instruct1,0
14,28424.0,97333,mouselab,0,3,"[0.2, 0.2, 0.1, 0.5]",-114,-114,[],"[[198, 437, 172, -50, -57, -166], [-35, -18, 70, 148, 137, -124], [249, 123, 65, 168, 93, 17], [-111, -114, 185, 8, 145, 132]]",[],8,1,instruct1,1
14,11505.0,152096,mouselab,0,2,"[0.2, 0.2, 0.1, 0.5]",65,65,[],"[[198, 437, 172, -50, -57, -166], [-35, -18, 70, 148, 137, -124], [249, 123, 65, 168, 93, 17], [-111, -114, 185, 8, 145, 132]]",[],8,2,instruct1,2
14,14602.0,176577,mouselab,0,0,"[0.9, 0.01, 0.03, 0.06]",186,186,[],"[[-185, 16, -190, 186, 13, 124], [-69, -66, 4, 54, -185, -35], [272, 61, 103, 330, 0, -127], [12, -171, -31, 83, 6, 35]]",[],8,3,instruct2,0
14,6646.0,185166,mouselab,0,2,"[0.18, 0.26, 0.38, 0.18]",328,328,[],"[[30, -42, 121, 208, 256, -186], [-167, -398, 320, -140, 367, 4], [63, 122, -77, 262, 328, 95], [-172, 133, 133, 164, 182, -148]]",[],8,4,instruct2,1
14,1368.0,188137,mouselab,0,3,"[0.09, 0.32, 0.21, 0.38]",292,292,[],"[[66, -122, -80, -42, -114, 101], [-79, 53, -63, 246, -256, 277], [196, 36, 201, 5, -9, 270], [-31, 225, 162, 114, 86, 292]]",[],8,5,instruct2,2
14,11686.0,203649,mouselab,0,0,"[0.26, 0.26, 0.28, 0.2]",189,189,[],"[[219, 1, -44, 189, -147, -102], [204, -143, 114, -133, 101, -32], [102, -107, -146, -46, 166, -141], [189, -150, 25, -64, -101, 175]]",[],8,3,instruct3,0
14,1193.0,208072,mouselab,0,2,"[0.03000000000000001, 0.06, 0.74, 0.17]",28,28,[],"[[-50, -105, 59, 185, -331, -207], [-9, -178, -77, -13, -292, -22], [49, 104, 11, -333, 28, -41], [-137, 160, -224, 215, 202, 253]]",[],8,4,instruct3,1
14,1116.0,212896,mouselab,0,2,"[0.49, 0.02, 0.2, 0.29]",7,7,[],"[[181, 56, 145, 93, 91, -55], [-133, -146, -104, -21, -97, 119], [-63, 7, 312, 80, 79, -526], [340, 135, -29, -236, 132, -267]]",[],8,1,instruct3,2
14,2434.0,221307,mouselab,0,0,"[0.3, 0.08, 0.31, 0.31]",2,2,[],"[[2, 218, 56, -8, -39, -95], [66, 141, -218, 95, -59, 11], [-32, -100, -58, 244, -209, 51], [210, -31, 127, -53, -235, -545]]",[],8,0,test,0
14,856.0,223515,mouselab,0,0,"[0.47, 0.07, 0.2, 0.26]",-111,-111,[],"[[-72, 127, -111, -144, -56, -81], [20, 65, -346, 112, -15, -19], [115, -65, -164, -176, 158, 128], [-99, -196, -21, 97, 119, 125]]",[],8,2,test,1
14,566.0,226304,mouselab,0,2,"[0.29, 0.02, 0.64, 0.05]",279,279,[],"[[-31, -365, -142, -243, -95, 41], [-112, -80, 313, -151, 70, 76], [149, 33, -114, 279, 99, 156], [-90, 108, -160, 211, 151, -24]]",[],8,3,test,2
14,688.0,230578,mouselab,0,2,"[0.01000000000000012, 0.21, 0.7, 0.08]",211,211,[],"[[-142, -42, -408, -145, 48, -49], [-117, 16, 178, 4, 109, -116], [18, -36, -34, 294, -1, 211], [35, 109, -351, -103, 69, 50]]",[],8,5,test,3
14,672.0,232852,mouselab,0,2,"[0.06, 0.29, 0.54, 0.11]",159,159,[],"[[316, 320, 63, -271, 26, 17], [68, 220, -107, 284, -74, -24], [-6, 321, 50, -121, 159, 90], [-41, 51, -113, 200, -133, -60]]",[],8,4,test,4
14,927.0,234896,mouselab,0,2,"[0.24, 0.01, 0.62, 0.13]",4,4,[],"[[-157, 140, 227, -282, 273, 61], [148, -19, -139, 77, 238, -286], [-78, 4, 140, 47, -320, -330], [79, -12, -28, -55, -88, 235]]",[],8,1,test,5
14,1147.0,237054,mouselab,0,2,"[0.12, 0.54, 0.27, 0.07]",-185,-185,[],"[[-13, 112, 4, -101, 46, 170], [-232, 194, 21, -69, -41, 3], [541, 218, -185, -45, 94, 29], [-90, 98, 133, -119, 32, -197]]",[],8,2,test,6
14,516.0,238407,mouselab,0,2,"[0.37, 0.15, 0.3, 0.18]",-124,-124,[],"[[13, -176, -142, -128, -6, -312], [-7, 274, 13, -16, 180, -157], [-289, -124, -369, 16, 90, 318], [95, 187, -119, 275, -78, 129]]",[],8,1,test,7
14,496.0,239733,mouselab,0,2,"[0.06000000000000011, 0.6, 0.25, 0.09]",-7,-7,[],"[[-97, -321, -93, -97, -10, 281], [-22, 21, -179, 121, 6, -480], [61, -90, 123, 105, -7, 6], [-133, 30, 71, -109, -237, 201]]",[],8,4,test,8
14,491.0,241521,mouselab,0,0,"[0.54, 0.01, 0.15, 0.3]",181,181,[],"[[44, -50, -65, -263, 181, 15], [189, -177, 168, -135, 320, 42], [-40, 119, -197, 201, 119, 56], [133, 279, 69, 0, 179, -130]]",[],8,4,test,9
16,2022.0,6488,mouselab,0,0,"[0.2, 0.2, 0.1, 0.5]",-15,-15,[],"[[-27, -106, 116, -15, 38, -79], [37, 89, -64, 65, -165, 79], [-101, 56, 118, 99, 58, -29], [27, -46, 5, -63, 83, 35]]",[],0,3,instruct1,0
16,1214.0,8425,mouselab,0,3,"[0.2, 0.2, 0.1, 0.5]",5,5,[],"[[-27, -106, 116, -15, 38, -79], [37, 89, -64, 65, -165, 79], [-101, 56, 118, 99, 58, -29], [27, -46, 5, -63, 83, 35]]",[],0,2,instruct1,1
16,763.0,9927,mouselab,0,3,"[0.2, 0.2, 0.1, 0.5]",-63,-63,[],"[[-27, -106, 116, -15, 38, -79], [37, 89, -64, 65, -165, 79], [-101, 56, 118, 99, 58, -29], [27, -46, 5, -63, 83, 35]]",[],0,3,instruct1,2
16,754.0,11386,mouselab,0,3,"[0.23, 0.32, 0.17, 0.28]",-86,-86,[],"[[21, -68, 39, 16, -13, 29], [-53, -2, 119, 93, 89, 41], [-23, 73, 146, -43, 100, 113], [166, 84, 201, 107, -86, -29]]",[],0,4,instruct2,0
16,794.0,12853,mouselab,0,1,"[0.21000000000000002, 0.21, 0.32, 0.26]",172,172,[],"[[-135, 121, -118, 98, -51, -152], [146, 172, -9, -52, 37, -60], [28, 161, 47, 9, 125, 45], [75, 103, 6, -106, 31, -17]]",[],0,1,instruct2,1
16,667.0,14253,mouselab,0,3,"[0.18, 0.35, 0.18, 0.29]",-42,-42,[],"[[1, 53, 49, 37, 23, 75], [73, 42, -93, -63, 42, 92], [-75, 37, 45, -43, 101, 112], [-42, -51, 7, -11, -81, 15]]",[],0,0,instruct2,2
16,1103.0,15967,mouselab,0,0,"[0.3500000000000001, 0.31, 0.21, 0.13]",-54,-54,[],"[[44, -54, -3, 1, -15, 116], [-12, -12, 68, -57, 40, 116], [-2, -70, 53, -40, -45, 34], [-156, 55, -5, 24, -65, -4]]",[],0,1,instruct3,0
16,718.0,17405,mouselab,0,3,"[0.27, 0.32, 0.22, 0.19]",-119,-119,[],"[[5, -37, 116, -58, 4, -30], [-2, 18, 83, 4, -37, 34], [72, 108, 97, -139, 91, -58], [-82, 84, -119, 31, 115, 27]]",[],0,2,instruct3,1
16,449.0,18490,mouselab,0,1,"[0.31, 0.28, 0.21, 0.2]",-196,-196,[],"[[66, 38, 172, 6, -145, -110], [-71, 22, -112, -196, -51, 115], [-4, 12, -68, 104, 154, 47], [42, 105, 94, 25, 35, 2]]",[],0,3,instruct3,2
16,628.0,20633,mouselab,0,1,"[0.27, 0.28, 0.18, 0.27]",13,13,[],"[[-21, -96, 30, 16, -51, -55], [-79, 26, 13, -12, 6, -73], [15, 7, 38, 9, 8, 54], [-22, -66, 9, 94, 20, 47]]",[],0,2,test,0
16,553.0,21722,mouselab,0,0,"[0.26, 0.15, 0.3, 0.29]",111,111,[],"[[168, -58, 51, 111, -26, 69], [88, 5, 77, 10, -24, -80], [-71, -11, -134, -113, -95, -26], [51, -25, 217, -109, -150, 97]]",[],0,3,test,1
16,2690.0,25184,mouselab,0,1,"[0.26, 0.37, 0.19, 0.18]",-8,-8,"[4, 10, 14, 21, 3]","[[23, 121, -65, 51, 39, 12], [-100, 56, 64, -8, 44, -17], [82, 127, 10, -25, 81, -26], [-16, -18, -26, -64, 28, 20]]","[417, 716, 1628, 2058, 2400]",0,3,test,2
16,602.0,26634,mouselab,0,1,"[0.17, 0.4, 0.23, 0.2]",4,4,[],"[[51, -21, -70, 26, -9, 118], [4, 16, 20, 71, 35, 0], [10, -156, -21, -41, -15, 29], [12, -74, -153, 8, -2, 31]]",[],0,0,test,3
16,570.0,27843,mouselab,0,3,"[0.22, 0.41, 0.22, 0.15]",105,105,[],"[[169, -84, -32, -72, 31, -73], [-180, 28, -13, 56, 104, 192], [-50, 149, 21, -21, -209, 2], [-13, 105, -70, -19, -18, -144]]",[],0,1,test,4
16,561.0,28968,mouselab,0,0,"[0.21, 0.2, 0.32, 0.27]",52,52,[],"[[18, 24, -170, 52, -1, -42], [39, -23, -17, 62, -169, -63], [-84, 19, 99, 73, 166, 55], [46, 202, -185, 19, -26, 62]]",[],0,3,test,5
16,509.0,30616,mouselab,0,3,"[0.18, 0.29, 0.23, 0.3]",-47,-47,[],"[[-181, -41, 6, -11, 1, -32], [-48, 30, 15, 60, 98, 44], [-105, 35, -37, -73, -92, 56], [15, -130, -47, 72, -85, 26]]",[],0,2,test,6
16,777.0,32158,mouselab,0,0,"[0.31, 0.2, 0.29, 0.2]",41,41,[],"[[-111, 33, -54, 52, 104, 41], [-11, -170, -14, -41, -19, -114], [33, -82, -107, 7, 82, -63], [33, 87, -37, 29, 45, -18]]",[],0,5,test,7
16,487.0,33705,mouselab,0,2,"[0.18, 0.27, 0.42, 0.13]",-53,-53,[],"[[-30, -32, 5, 12, -26, -4], [88, 82, 2, -133, 81, 92], [81, 29, 11, -53, -11, 66], [-74, 54, -20, 46, -54, -9]]",[],0,3,test,8
16,500.0,35049,mouselab,0,1,"[0.29, 0.27, 0.25, 0.19]",-33,-33,[],"[[-78, 65, -30, 89, 0, -70], [70, -18, -33, -5, 59, 61], [71, 89, -115, -68, -13, -37], [55, -242, 162, 60, 109, -6]]",[],0,2,test,9
12,89369.0,103071,mouselab,0,3,"[0.2, 0.2, 0.1, 0.5]",248,248,[],"[[-29, 205, -55, -185, 285, -322], [-156, 131, -41, 22, 311, -68], [149, -101, 35, -184, -118, 77], [43, 248, 123, 103, -78, -195]]",[],0,1,instruct1,0
12,8809.0,114404,mouselab,0,3,"[0.2, 0.2, 0.1, 0.5]",248,248,[],"[[-29, 205, -55, -185, 285, -322], [-156, 131, -41, 22, 311, -68], [149, -101, 35, -184, -118, 77], [43, 248, 123, 103, -78, -195]]",[],0,1,instruct1,1
12,1878.0,119567,mouselab,0,3,"[0.2, 0.2, 0.1, 0.5]",123,123,[],"[[-29, 205, -55, -185, 285, -322], [-156, 131, -41, 22, 311, -68], [149, -101, 35, -184, -118, 77], [43, 248, 123, 103, -78, -195]]",[],0,2,instruct1,2
12,19693.0,141916,mouselab,0,2,"[0.01, 0.04, 0.57, 0.38]",169,169,[],"[[165, 200, 78, -182, 62, 51], [-261, 142, -82, 33, -210, 85], [151, 169, 10, -132, 96, 126], [-24, 229, 60, -206, -127, 189]]",[],0,1,instruct2,0
12,6576.0,150648,mouselab,0,0,"[0.92, 0.01, 0.06, 0.01]",391,391,[],"[[-114, 102, -201, 391, 194, 347], [105, 17, 307, 341, 189, 41], [72, -145, 76, 261, -311, 224], [-84, -23, 216, 245, -143, -319]]",[],0,3,instruct2,1
12,9419.0,161872,mouselab,0,0,"[0.43, 0.55, 0.01, 0.01]",179,179,[],"[[-117, -201, -59, 179, 143, 114], [69, 80, -60, 135, -13, 93], [60, -22, -167, 80, -172, -37], [-103, -49, -178, 168, 133, 127]]",[],0,3,instruct2,2
12,27023.0,199669,mouselab,0,1,"[0.48, 0.23, 0.22, 0.07]",-51,-51,"[0, 1, 2, 3, 4, 5]","[[80, -93, -72, -174, 100, -64], [168, 106, -153, -71, -51, 123], [96, 231, -240, -306, -193, 69], [39, -153, 152, -175, 190, 30]]","[17226, 19597, 20460, 22894, 23425, 24023]",0,4,instruct3,0
12,23544.0,225660,mouselab,0,0,"[0.48, 0.3, 0.2, 0.02]",-39,-39,"[0, 1, 2, 3, 4, 5, 10, 16, 22, 6, 12, 18, 8, 14, 20, 19, 13, 7, 9, 15, 21, 23, 17, 11]","[[123, -104, 0, -39, 134, -16], [-73, -271, -49, 36, -244, 199], [-341, 64, -255, 178, -46, -133], [-129, -148, -44, 80, 79, -129]]","[6084, 7103, 7608, 8022, 8431, 9084, 9896, 10307, 10722, 11418, 11854, 12273, 13513, 13960, 14392, 14800, 15180, 15587, 16284, 16712, 17084, 17633, 18018, 18536]",0,3,instruct3,1
12,13342.0,240660,mouselab,0,2,"[0.42, 0.15, 0.42, 0.01]",235,235,"[0, 1, 2, 3, 4, 5, 11, 10, 9, 8, 7, 6, 12, 13, 14, 15, 16, 17, 23, 22, 21, 20, 19, 18]","[[-50, 21, -25, 70, 10, 466], [237, -120, -58, 52, -172, 29], [125, 111, 23, -101, 8, 235], [105, -89, -166, 148, -239, -179]]","[1343, 1907, 2156, 2424, 2700, 2988, 3248, 3492, 3759, 4128, 4399, 4754, 5060, 5357, 5639, 5936, 6189, 6507, 6834, 7193, 7688, 8010, 8409, 8862]",0,5,instruct3,2
12,27143.0,279472,mouselab,0,2,"[0.01, 0.02, 0.54, 0.43]",222,222,"[0, 1, 2, 3, 5, 4, 10, 11, 17, 16, 22, 23, 12, 13, 14, 15, 7, 19, 20, 8, 9, 21, 18, 6]","[[-98, 26, -81, -33, -200, -105], [131, -218, 52, -52, 210, -85], [-406, 112, -174, -164, 222, 44], [-223, -154, -376, 29, -19, 74]]","[1104, 1380, 1665, 1868, 2697, 3013, 3303, 3578, 4040, 4365, 4682, 5353, 6390, 6636, 6920, 7242, 8080, 8633, 9323, 9712, 10006, 10527, 11079, 11575]",0,4,test,0
12,23177.0,306809,mouselab,0,0,"[0.19, 0.01, 0.02, 0.78]",-125,-125,"[0, 7, 14, 21, 1, 8, 15, 22, 23, 16, 9, 2, 3, 10, 4, 5, 11, 17, 20, 19, 13, 12, 18, 6]","[[-50, -125, 106, 24, 122, -1], [122, 27, -10, 92, -77, -128], [-208, -159, 134, -256, 138, 261], [-55, 156, -103, 6, -29, -65]]","[1002, 1393, 1740, 2182, 2713, 3027, 3442, 3914, 4269, 4580, 4939, 5294, 5586, 6305, 6620, 6935, 7245, 7588, 8080, 8346, 8689, 9038, 9342, 9803]",0,1,test,1
12,14281.0,322884,mouselab,0,2,"[0.10000000000000012, 0.1, 0.72, 0.08]",169,169,"[0, 1, 2, 3, 4, 5, 11, 10, 9, 8, 7, 6, 12, 13, 14, 15, 16, 17, 23, 22, 21, 20, 19, 18]","[[-83, -126, -242, 167, 59, 174], [152, 71, -96, 183, -3, -139], [-37, -116, -182, -39, -164, 169], [-106, 2, 37, -241, -194, 143]]","[1018, 1332, 1607, 1873, 2133, 2432, 2766, 3058, 3366, 3709, 3998, 4336, 4665, 4925, 5207, 5505, 5775, 6022, 6362, 6651, 6965, 7263, 7576, 7965]",0,5,test,2
12,14061.0,338869,mouselab,0,1,"[0.03, 0.2, 0.02, 0.75]",149,149,"[0, 1, 2, 3, 4, 5, 11, 10, 9, 8, 7, 6, 12, 13, 14, 15, 16, 17, 23, 22, 21, 20, 19, 18]","[[88, -103, 26, 52, 215, 132], [-279, -92, -65, 103, 149, -181], [-208, -214, 241, -33, 41, -118], [-265, -56, 244, -238, 106, 94]]","[1136, 1404, 1662, 1929, 2213, 2479, 2769, 3028, 3304, 3585, 3879, 4150, 4426, 4693, 4974, 5249, 5484, 5753, 6041, 6326, 6608, 7070, 7383, 7715]",0,4,test,3
12,9814.0,349813,mouselab,0,3,"[0.010000000000000009, 0.01, 0.06, 0.92]",119,119,"[0, 1, 2, 3, 4, 5, 11, 10, 9, 8, 7, 18, 19, 20, 21, 22, 23, 14, 16, 17]","[[-12, -275, -199, -109, 198, 243], [-156, -80, -1, 34, 14, 104], [-114, -194, 18, -38, -307, 62], [-127, -174, 118, -132, 9, 119]]","[877, 1137, 1385, 1656, 1936, 2228, 2519, 2759, 3073, 3469, 3860, 4636, 4911, 5201, 5624, 6032, 6378, 7554, 7994, 8299]",0,5,test,4
12,26536.0,378970,mouselab,0,1,"[0.53, 0.28, 0.02, 0.17]",-75,-75,"[0, 1, 2, 3, 4, 5, 8, 14, 20, 6, 12, 18, 7, 13, 9, 10, 11, 17, 23, 22, 16, 15, 21, 19]","[[30, -108, 149, -161, -152, -301], [128, -127, -75, 44, 109, 240], [-150, 94, 34, 162, -202, 20], [-133, 148, 99, -205, 72, 215]]","[2652, 2926, 3212, 3526, 3875, 4188, 5225, 5531, 5869, 6449, 6808, 7131, 10866, 11172, 11889, 12178, 13182, 14291, 14539, 14899, 15204, 15573, 15897, 20697]",0,2,test,5
12,38118.0,418501,mouselab,0,0,"[0.65, 0.13, 0.19, 0.03]",209,209,"[0, 1, 2, 3, 4, 5, 11, 10, 9, 8, 7, 6, 12, 13, 14, 15, 16, 17, 23, 22, 21, 19, 18, 20]","[[-91, -97, 134, 13, 209, 127], [-110, -173, 182, 279, -24, -29], [-299, -52, -292, -270, -21, -78], [276, -34, -30, 5, -287, -85]]","[902, 1188, 1412, 1671, 1914, 2243, 2533, 2784, 3091, 3408, 3666, 3923, 4212, 4440, 4723, 5004, 5309, 5600, 5929, 6251, 6677, 7060, 7861, 8379]",0,4,test,6
12,28797.0,448972,mouselab,0,0,"[0.17, 0.04, 0.06, 0.73]",-3,-3,"[0, 1, 2, 3, 4, 5, 11, 10, 9, 7, 6, 8, 14, 13, 12, 18, 19, 20, 21, 15, 16, 22, 23, 17]","[[-206, -3, -176, -113, -207, -18], [-87, 106, 9, -119, 212, -137], [-146, -91, -104, -7, -172, -192], [74, -10, 46, 45, 79, -258]]","[910, 1175, 1437, 1717, 2013, 2305, 2595, 2869, 3173, 3474, 4093, 4415, 4887, 5193, 5468, 5773, 6039, 6321, 6625, 6912, 7247, 7558, 7879, 8296]",0,1,test,7
12,13670.0,464051,mouselab,0,3,"[0.54, 0.01, 0.15, 0.3]",179,179,"[0, 6, 12, 18, 19, 13, 7, 1, 2, 8, 14, 20, 21, 15, 9, 3, 4, 10, 16, 22, 23, 17, 11, 5]","[[44, -50, -65, -263, 181, 15], [189, -177, 168, -135, 320, 42], [-40, 119, -197, 201, 119, 56], [133, 279, 69, 0, 179, -130]]","[1350, 1600, 1889, 2196, 2478, 2736, 3104, 3407, 3713, 4015, 4354, 4676, 4966, 5279, 5561, 5916, 6290, 6648, 6926, 7274, 7555, 7845, 8215, 8579]",0,4,test,8
12,23127.0,488958,mouselab,0,0,"[0.62, 0.24, 0.03, 0.11]",81,81,"[0, 1, 2, 3, 4, 5, 11, 10, 9, 8, 7, 6, 12, 18, 16, 22, 23, 17, 15, 21, 20, 14, 13, 19]","[[245, -124, 81, -11, 144, 29], [-260, -134, -115, 6, -234, -96], [-119, 161, 155, -222, 69, -186], [-75, -141, 66, -5, 173, -11]]","[863, 1123, 1397, 1679, 1968, 2234, 2548, 2831, 3192, 3499, 3893, 4324, 5859, 6271, 7220, 7643, 8087, 8427, 8875, 9335, 9649, 9954, 10277, 10599]",0,2,test,9
3,22262.0,27738,mouselab,0,3,"[0.2, 0.2, 0.1, 0.5]",-10,-10,[],"[[159, 71, 115, -61, -43, -130], [-8, 7, 124, -25, -133, -130], [-37, 9, 0, -95, 1, -110], [-10, -60, 62, 1, 46, -19]]",[],0,0,instruct1,0
3,1260.0,30080,mouselab,0,3,"[0.2, 0.2, 0.1, 0.5]",-60,-60,[],"[[159, 71, 115, -61, -43, -130], [-8, 7, 124, -25, -133, -130], [-37, 9, 0, -95, 1, -110], [-10, -60, 62, 1, 46, -19]]",[],0,1,instruct1,1
3,1080.0,32256,mouselab,0,3,"[0.2, 0.2, 0.1, 0.5]",62,62,[],"[[159, 71, 115, -61, -43, -130], [-8, 7, 124, -25, -133, -130], [-37, 9, 0, -95, 1, -110], [-10, -60, 62, 1, 46, -19]]",[],0,2,instruct1,2
3,9746.0,43716,mouselab,0,1,"[0.07, 0.63, 0.16, 0.14]",79,79,[],"[[74, -43, -10, 35, 84, 41], [-103, -173, 45, 31, 79, -8], [-90, -48, -74, 56, 76, -191], [147, -8, -122, -136, 183, 38]]",[],0,4,instruct2,0
3,2068.0,46911,mouselab,0,1,"[0.14, 0.61, 0.14, 0.11]",133,133,[],"[[2, 100, 22, -13, 81, -64], [72, 133, 35, -19, 124, 92], [2, 171, 135, -3, 11, 82], [146, 176, -102, 33, -26, -46]]",[],0,1,instruct2,1
3,1834.0,50193,mouselab,0,1,"[0.17, 0.39, 0.02, 0.42]",61,61,[],"[[-7, -110, 149, -35, 5, 165], [-39, -62, -136, -122, 31, 61], [-62, -74, -55, -63, -8, 27], [-56, -2, -153, -43, -98, 13]]",[],0,5,instruct2,2
3,13463.0,65373,mouselab,0,2,"[0.2699999999999999, 0.07, 0.56, 0.1]",-91,-91,"[5, 4, 3, 2, 1, 0, 8, 14, 20]","[[-25, -45, 25, -74, -14, -11], [-112, 56, 122, 83, -2, 48], [86, -123, -91, -50, 41, 8], [94, -82, 117, -26, -140, -141]]","[6258, 7324, 8218, 9321, 9939, 10646, 11271, 11811, 12407]",0,2,instruct3,0
3,17716.0,84163,mouselab,0,2,"[0.7, 0.07, 0.2, 0.03]",-56,-56,"[0, 7, 14, 9, 13, 1, 15, 21, 16, 11, 4, 5, 23, 17, 10, 22, 3, 2, 8, 20, 19, 18, 12, 6]","[[-104, -64, -137, -58, 39, -13], [104, -6, -82, -29, -130, 13], [19, 11, -47, -22, -56, 0], [-62, -146, 91, 55, 190, 113]]","[1105, 1472, 2007, 2601, 3431, 3806, 4668, 5076, 5490, 6000, 6618, 7002, 7614, 8060, 8796, 9344, 10872, 11279, 11630, 12454, 12736, 13096, 13387, 14067]",0,4,instruct3,1
3,9594.0,95393,mouselab,0,2,"[0.14, 0.16, 0.69, 0.01]",68,68,"[0, 6, 12, 18, 19, 13, 7, 1, 2, 8, 14, 20, 21, 15, 9, 3, 10, 16, 22, 17, 11]","[[91, -44, 21, 70, 76, 34], [17, -42, -70, -63, -41, -168], [68, 54, -36, -107, 3, 13], [67, -95, -103, -90, -5, -49]]","[1981, 2404, 2717, 3021, 3532, 3759, 3932, 4182, 4684, 4934, 5208, 5505, 5834, 6022, 6202, 6454, 7243, 7525, 7783, 8122, 8528]",0,0,instruct3,2
3,5821.0,105757,mouselab,0,1,"[0.1999999999999999, 0.4, 0.01, 0.39]",101,101,"[0, 1, 7, 13, 2, 8, 14, 20]","[[-20, 36, 41, 36, -10, -74], [93, -124, 101, 100, -22, -27], [14, -74, 208, -53, 111, 10], [28, 0, 8, -33, -9, 71]]","[911, 1961, 2656, 3056, 3714, 4349, 4716, 5140]",0,2,test,0
3,9489.0,116219,mouselab,0,1,"[0.18, 0.52, 0.29, 0.01]",113,113,"[0, 1, 2, 3, 4, 5, 11, 10, 17, 23, 9, 8, 7, 13, 19]","[[-76, -6, -27, -29, -131, -11], [80, 113, -24, -84, -97, 59], [-15, -5, -33, -11, -18, 23], [-60, 83, 202, 36, 27, -19]]","[937, 1518, 2043, 2551, 3106, 3601, 4182, 4799, 5433, 5981, 6569, 7117, 7665, 8119, 8519]",0,1,test,1
3,11631.0,128892,mouselab,0,0,"[0.49, 0.24, 0.02, 0.25]",-77,-77,"[0, 1, 7, 13, 19, 6, 12, 18, 2, 8, 14, 20, 3, 9, 15, 21, 22, 16, 10, 4, 5, 11, 17, 23]","[[64, 100, -77, 1, -31, 22], [-109, -58, 133, -29, -12, 73], [27, -57, 107, 18, -2, -10], [81, 41, 5, 10, -60, 203]]","[884, 1326, 2012, 2466, 2899, 3368, 3861, 4129, 4629, 5413, 6047, 6361, 7221, 7793, 8067, 8372, 8663, 8859, 9069, 9305, 9571, 9829, 10347, 10644]",0,2,test,2
3,8864.0,138854,mouselab,0,2,"[0.06, 0.06, 0.45, 0.43]",127,127,"[0, 6, 12, 18, 19, 13, 7, 1, 2, 8, 21, 14, 20, 15, 9, 3, 4, 10, 16, 22, 23, 17, 11, 5]","[[-30, -194, -1, -157, -10, -56], [-168, 10, 123, 48, -32, -3], [127, 203, 100, -41, 46, 44], [138, -20, -73, -47, -51, 13]]","[888, 1166, 1496, 1762, 2012, 2240, 2466, 2724, 3202, 3460, 4338, 4581, 4840, 5082, 5332, 5615, 5874, 6140, 6423, 6671, 6906, 7141, 7400, 7893]",0,0,test,3
3,12672.0,152495,mouselab,0,1,"[0.01, 0.39, 0.42, 0.18]",132,132,"[0, 6, 12, 18, 19, 13, 7, 1, 2, 8, 14, 20, 21, 15, 9, 3, 4, 10, 16, 22, 23, 17, 11, 5]","[[-16, -42, 14, -95, 55, -63], [-97, 29, -101, -103, 132, 103], [-68, -66, -21, -1, 10, 13], [24, 132, -88, 11, -45, -59]]","[916, 1166, 1424, 1675, 1934, 2160, 2389, 2638, 3101, 3406, 3673, 3930, 4159, 4362, 4567, 4800, 5058, 5324, 5598, 5850, 6084, 6312, 6570, 6835]",0,4,test,4
3,4840.0,158432,mouselab,0,0,"[0.16, 0.07, 0.07, 0.7]",139,139,"[0, 6, 12, 18, 19, 13, 7, 1, 2, 8, 14, 20]","[[64, -65, 139, -41, 58, -26], [-87, 43, 93, -209, -45, -4], [-76, 127, 50, -9, -10, 89], [56, -26, 66, 64, 54, 29]]","[846, 1113, 1386, 1652, 1872, 2084, 2334, 3000, 3234, 3502, 3761, 4025]",0,2,test,5
3,7346.0,166780,mouselab,0,1,"[0.01, 0.13, 0.02, 0.84]",105,105,"[0, 6, 12, 18, 19, 13, 7, 8, 14, 20, 21, 15, 9, 10, 16, 22, 23, 17, 11, 5]","[[-50, -51, -82, -27, 41, 81], [-24, -22, 86, -44, -45, 105], [-2, 127, 6, 61, -19, 30], [46, -74, -69, 48, 69, 54]]","[581, 854, 1127, 1394, 1669, 1990, 2232, 2521, 2796, 3039, 3306, 3516, 3744, 4088, 4411, 4652, 5585, 5804, 6085, 6781]",0,5,test,6
3,10665.0,178401,mouselab,0,3,"[0.009999999999999992, 0.54, 0.02, 0.43]",-123,-123,"[0, 6, 12, 13, 7, 8, 14, 20, 21, 15, 9, 10, 16, 22, 23, 17, 11, 2, 1]","[[53, -9, 64, 33, -1, 23], [-65, -40, 133, -37, -105, -36], [-91, 44, -85, -137, -23, -87], [-13, -72, -123, -6, 73, -24]]","[846, 1106, 1409, 1888, 2123, 2600, 2868, 3102, 3666, 3900, 4182, 4534, 4787, 5044, 5366, 5560, 5804, 6946, 8004]",0,2,test,7
3,2672.0,182411,mouselab,0,2,"[0.12, 0.01, 0.85, 0.02]",106,106,"[6, 0, 12, 18]","[[2, 88, -81, -68, -69, -20], [75, 44, 2, -67, -177, 78], [106, 39, 49, -49, 99, -9], [99, 65, 57, 6, -18, 53]]","[736, 1205, 1520, 1761]",0,0,test,8
3,10094.0,193547,mouselab,0,1,"[0.03, 0.45, 0.33, 0.19]",-28,-28,"[0, 6, 12, 18, 19, 13, 7, 2, 1, 8, 14, 20, 21, 15, 9, 3, 4, 10, 16, 22, 23, 17, 11, 5]","[[40, 20, -70, -23, -27, 18], [-28, -79, -10, -51, 34, 43], [-108, 34, -17, -5, 38, 26], [90, 35, -27, 21, 74, -46]]","[736, 1018, 1418, 1667, 1966, 2192, 2420, 2968, 3454, 3736, 3994, 4236, 4534, 4762, 4988, 5420, 5756, 6014, 6296, 6553, 6782, 7023, 7260, 7768]",0,0,test,9
4,63166.0,81804,mouselab,0,3,"[0.2, 0.2, 0.1, 0.5]",-147,-147,[],"[[16, -118, 105, 39, 58, -144], [-18, 132, -121, -146, 120, 54], [11, -100, -63, 21, -145, 36], [-147, 52, 3, -38, 147, 2]]",[],8,0,instruct1,0
4,7236.0,91846,mouselab,0,1,"[0.2, 0.2, 0.1, 0.5]",132,132,[],"[[16, -118, 105, 39, 58, -144], [-18, 132, -121, -146, 120, 54], [11, -100, -63, 21, -145, 36], [-147, 52, 3, -38, 147, 2]]",[],8,1,instruct1,1
4,2360.0,109419,mouselab,0,1,"[0.2, 0.2, 0.1, 0.5]",-121,-121,[],"[[16, -118, 105, 39, 58, -144], [-18, 132, -121, -146, 120, 54], [11, -100, -63, 21, -145, 36], [-147, 52, 3, -38, 147, 2]]",[],8,2,instruct1,2
4,21624.0,138939,mouselab,0,3,"[0.23, 0.35, 0.26, 0.16]",162,162,[],"[[-125, -50, -8, -35, -58, -100], [71, -87, 106, -135, 15, -109], [55, 47, 80, -50, 18, 27], [96, 140, 162, 97, -111, 7]]",[],8,2,instruct2,0
4,7859.0,150373,mouselab,0,0,"[0.7, 0.03, 0.11, 0.16]",74,74,[],"[[65, -170, 74, -50, -4, -60], [100, 48, 169, -130, 146, 3], [-141, 127, 148, 22, 81, -92], [-149, -82, 55, 28, 15, 34]]",[],8,2,instruct2,1
4,5049.0,172060,mouselab,0,3,"[0.04999999999999999, 0.09, 0.08, 0.78]",93,93,[],"[[-19, 51, 62, -56, -49, -14], [-38, 59, 166, 57, 129, -108], [-73, 43, 78, 12, -53, 21], [2, 0, 93, 68, 23, 53]]",[],8,2,instruct2,2
4,39427.0,219998,mouselab,24,1,"[0.029999999999999992, 0.45, 0.49, 0.03]",124,100,"[8, 14, 20]","[[159, 71, 115, -61, -43, -130], [-8, 7, 124, -25, -133, -130], [-37, 9, 0, -95, 1, -110], [-10, -60, 62, 1, 46, -19]]","[31016, 33842, 35332]",8,2,instruct3,0
4,3122.0,227945,mouselab,0,2,"[0.14, 0.16, 0.69, 0.01]",-36,-36,[],"[[91, -44, 21, 70, 76, 34], [17, -42, -70, -63, -41, -168], [68, 54, -36, -107, 3, 13], [67, -95, -103, -90, -5, -49]]",[],8,2,instruct3,1
4,12627.0,246335,mouselab,24,0,"[0.8999999999999999, 0.04, 0.01, 0.05]",26,2,"[7, 6, 12]","[[-20, -5, -68, 26, 6, -90], [42, -87, 18, -41, 124, 74], [-22, -130, 19, 7, 40, 25], [83, -3, -31, 49, 60, -1]]","[2844, 6455, 9776]",8,3,instruct3,2
4,18940.0,281760,mouselab,24,3,"[0.01, 0.06, 0.55, 0.38]",-52,-76,"[13, 15, 17]","[[-13, -27, 28, -101, 82, 144], [30, 63, -54, -193, -9, -4], [-19, -88, 62, -2, -139, -38], [-52, 21, -150, 8, 143, -92]]","[9665, 13014, 16190]",8,0,test,0
4,10814.0,298028,mouselab,24,1,"[0.09000000000000001, 0.51, 0.39, 0.01]",55,31,"[2, 9, 11]","[[-92, 90, -34, 2, 105, -34], [-29, -9, -14, -27, 50, 55], [106, -41, -82, -40, -43, 25], [14, -38, -42, -31, 121, 108]]","[3043, 5313, 9124]",8,5,test,1
4,8088.0,313581,mouselab,8,1,"[0.11, 0.74, 0.14, 0.01]",-132,-140,[22],"[[168, -49, 128, -56, -15, -53], [138, -186, 88, -39, -132, -62], [15, -31, 89, -41, 18, -44], [-4, 64, -129, -18, 169, -83]]",[6320],8,4,test,2
4,8646.0,329611,mouselab,24,0,"[0.71, 0.27, 0.01, 0.01]",78,54,"[7, 14, 10]","[[70, 21, 78, 14, -68, -76], [-35, -191, -49, -5, -73, 26], [-25, -1, 82, 80, 211, 12], [-62, -67, 105, 21, -66, -50]]","[2252, 4517, 6496]",8,2,test,3
4,7011.0,342765,mouselab,16,3,"[0.33, 0.26, 0.36, 0.05]",32,16,"[22, 10]","[[100, -23, -23, 34, -135, 41], [96, -59, 48, -128, 119, 156], [47, 139, -136, -25, 110, -57], [-13, -17, 58, 147, 32, -47]]","[2343, 5104]",8,4,test,4
4,9982.0,364417,mouselab,24,0,"[0.25, 0.08, 0.27, 0.4]",-95,-119,"[20, 8, 6]","[[-43, 2, -11, -3, -95, -6], [-73, -8, -4, 20, -34, 58], [-116, -60, 109, 11, 6, -68], [37, 128, 16, 40, 17, 121]]","[2674, 4301, 7183]",8,4,test,5
4,7862.0,375398,mouselab,24,2,"[0.04, 0.27, 0.67, 0.02]",92,68,"[13, 15, 17]","[[92, -21, 13, 37, 93, 5], [-18, 41, 52, -53, 41, -40], [102, 15, -5, 92, 32, 61], [78, 27, 76, -35, 20, 35]]","[2492, 4183, 5720]",8,3,test,6
4,8727.0,389494,mouselab,24,0,"[0.81, 0.01, 0.01, 0.17]",51,27,"[0, 2, 4]","[[-42, 20, -198, 51, -67, 62], [-33, -28, -80, 6, 67, -13], [26, -52, -30, -110, 59, -94], [-13, -37, 41, 28, 37, 16]]","[3040, 4701, 6344]",8,3,test,7
4,11861.0,405556,mouselab,24,2,"[0.18, 0.24, 0.24, 0.34]",60,36,"[7, 13, 19]","[[-169, -3, 67, 52, 99, -57], [56, -13, -28, -105, -37, 55], [37, 60, 33, 29, -58, -5], [84, 104, 51, -19, 16, -149]]","[6377, 8541, 10032]",8,1,test,8
4,4104.0,417617,mouselab,0,3,"[0.039999999999999994, 0.18, 0.12, 0.66]",-196,-196,[],"[[12, 123, 20, 94, 2, 87], [38, -79, 34, 66, -33, 151], [-26, 6, -65, 45, 90, -26], [13, 145, 109, 77, -196, -38]]",[],8,4,test,9
9,72878.0,99794,mouselab,0,0,"[0.2, 0.2, 0.1, 0.5]",166,166,[],"[[166, 44, -27, -71, 17, -77], [-12, 121, -109, 78, 33, -92], [-40, 165, 69, -78, -22, 12], [48, 61, 139, 91, 20, 70]]",[],0,0,instruct1,0
9,24582.0,131196,mouselab,0,3,"[0.2, 0.2, 0.1, 0.5]",61,61,[],"[[166, 44, -27, -71, 17, -77], [-12, 121, -109, 78, 33, -92], [-40, 165, 69, -78, -22, 12], [48, 61, 139, 91, 20, 70]]",[],0,1,instruct1,1
9,3360.0,143768,mouselab,0,1,"[0.2, 0.2, 0.1, 0.5]",-109,-109,[],"[[166, 44, -27, -71, 17, -77], [-12, 121, -109, 78, 33, -92], [-40, 165, 69, -78, -22, 12], [48, 61, 139, 91, 20, 70]]",[],0,2,instruct1,2
9,18233.0,168562,mouselab,0,2,"[0.23, 0.22, 0.28, 0.27]",90,90,[],"[[-3, 90, 114, 25, 149, -142], [104, -18, 8, -98, 121, -2], [69, -16, 8, 23, 90, -25], [144, -66, 29, 173, 185, -17]]",[],0,4,instruct2,0
9,11267.0,187252,mouselab,0,2,"[0.2, 0.26, 0.34, 0.2]",38,38,[],"[[33, 73, -21, 54, -43, 101], [-30, 25, 19, -2, 84, 120], [24, -125, -58, -7, -20, 38], [101, 53, 171, -97, 93, 208]]",[],0,5,instruct2,1
9,6702.0,208680,mouselab,0,2,"[0.25, 0.16, 0.25, 0.34]",81,81,[],"[[94, 172, 138, -66, -68, -53], [53, 91, 16, 43, 59, 70], [-77, 81, 71, -89, -56, 10], [-21, 163, 89, 57, 129, -18]]",[],0,1,instruct2,2
9,38677.0,260601,mouselab,0,0,"[0.13, 0.32, 0.27, 0.28]",128,128,"[8, 9, 10, 21, 22, 16, 11, 17, 23, 6, 12, 18, 13, 7, 4]","[[-15, 22, -87, -155, 128, 8], [-15, -96, -63, 78, 32, 37], [-159, 107, 25, 96, 20, -4], [17, 34, -44, -118, 36, -60]]","[16667, 18283, 19475, 22268, 23242, 24720, 26860, 28698, 29283, 30627, 31250, 31966, 32612, 33087, 35968]",0,4,instruct3,0
9,26103.0,289965,mouselab,0,0,"[0.25, 0.23, 0.2, 0.32]",-4,-4,"[19, 20, 21, 22, 23, 18, 12, 6, 0, 2, 8, 14, 15, 9, 3, 5, 11, 16, 10, 7, 1]","[[-4, -56, 15, 11, 12, -210], [140, -17, 0, -90, -17, 39], [-89, 12, -68, 57, 35, 42], [113, -41, 7, 53, -62, 2]]","[4832, 5486, 6002, 6431, 7028, 7922, 9382, 9749, 10102, 13061, 13396, 13775, 14838, 15170, 15485, 16774, 17085, 18026, 18350, 19474, 19849]",0,0,instruct3,1
9,10906.0,303384,mouselab,0,1,"[0.14, 0.27, 0.26, 0.33]",107,107,"[18, 20, 21, 22, 23, 19, 12, 6, 0, 10, 4, 16]","[[105, 72, -60, -13, 111, -61], [8, -29, -36, -107, 107, -54], [18, -12, 135, -50, 15, -38], [92, 1, -6, -114, 41, -42]]","[2136, 2512, 2988, 3574, 4023, 4825, 5478, 5853, 6235, 8205, 8641, 9068]",0,4,instruct3,2
9,19674.0,337736,mouselab,0,0,"[0.16, 0.21, 0.29, 0.34]",256,256,"[20, 19, 18, 21, 22, 23, 12, 6, 0, 13, 7, 1, 14, 8, 2, 17, 11, 5, 16, 10, 4, 3, 9, 15]","[[2, 256, -76, 0, -40, -22], [-63, 30, 65, -93, 4, -62], [-50, -39, -104, -89, -78, 52], [160, 50, 39, -11, -5, 25]]","[4426, 4996, 5502, 6285, 6682, 7066, 7983, 8356, 8722, 10366, 10717, 11097, 11620, 11955, 12287, 13035, 13388, 13876, 14882, 15206, 15587, 16007, 16337, 16870]",0,1,test,0
9,10070.0,352650,mouselab,0,2,"[0.12, 0.28, 0.35, 0.25]",81,81,"[18, 19, 20, 21, 22, 23, 13, 7, 1, 2, 8, 14]","[[-39, 159, -25, 49, -56, 99], [57, -22, -32, -92, -62, -48], [34, 81, 28, -57, -8, 8], [41, 142, 118, 35, -74, -11]]","[1879, 2346, 2883, 3382, 3801, 4427, 6007, 6372, 6783, 7507, 7872, 8277]",0,1,test,1
9,12060.0,369070,mouselab,0,3,"[0.28, 0.16, 0.33, 0.23]",59,59,"[12, 13, 14, 15, 16, 17, 9, 3, 21, 20, 8, 2]","[[101, -61, 102, -166, 37, 158], [-105, 14, -11, -32, 13, 58], [-99, -80, 46, 70, -38, -161], [-8, 6, 59, -121, 167, -56]]","[1952, 2442, 2846, 3273, 3728, 4324, 5462, 6209, 7143, 8791, 9953, 10458]",0,2,test,2
9,14130.0,388388,mouselab,0,3,"[0.16999999999999998, 0.26, 0.23, 0.34]",85,85,"[18, 19, 20, 21, 22, 23, 16, 10, 4, 2, 8, 14, 13, 7, 1]","[[-60, 74, -95, 143, 46, -7], [9, 38, -63, -122, -46, -20], [31, -11, 24, 66, 27, -36], [-123, 85, 10, -65, 75, -187]]","[2764, 3284, 3735, 4149, 4532, 4996, 5837, 6182, 6701, 7564, 7948, 8383, 8978, 9319, 9746]",0,1,test,3
9,13902.0,404615,mouselab,0,1,"[0.32, 0.29, 0.13, 0.26]",-64,-64,"[0, 1, 2, 3, 4, 5, 8, 14, 20, 10, 16, 22]","[[-27, -106, 116, -15, 38, -79], [37, 89, -64, 65, -165, 79], [-101, 56, 118, 99, 58, -29], [27, -46, 5, -63, 83, 35]]","[2652, 3082, 3586, 4738, 5228, 5674, 6983, 7376, 7767, 11634, 11986, 12374]",0,2,test,4
9,11335.0,425798,mouselab,0,2,"[0.31, 0.28, 0.21, 0.2]",12,12,"[0, 1, 2, 3, 4, 5, 8, 14, 20, 7, 13, 19, 6, 12, 18]","[[66, 38, 172, 6, -145, -110], [-71, 22, -112, -196, -51, 115], [-4, 12, -68, 104, 154, 47], [42, 105, 94, 25, 35, 2]]","[2676, 3104, 3476, 3936, 4451, 5332, 6238, 6615, 7088, 8147, 8606, 9047, 9757, 10154, 10582]",0,1,test,5
9,25411.0,453225,mouselab,0,0,"[0.28, 0.23, 0.29, 0.2]",53,53,"[0, 1, 2, 3, 4, 5, 10, 16, 22, 8, 14, 20, 7, 13, 19, 6, 12, 9, 15, 17]","[[-114, 27, 21, -66, 53, -138], [59, 64, -161, -122, 1, 113], [-24, -79, 39, 189, -88, 43], [-1, 99, 82, -35, 26, 13]]","[2309, 2846, 3602, 4180, 4823, 6349, 7143, 7592, 8013, 8885, 9285, 9754, 10607, 11025, 11631, 13493, 13875, 15170, 15617, 19876]",0,4,test,6
9,29842.0,486234,mouselab,0,1,"[0.21, 0.3, 0.29, 0.2]",7,7,"[6, 7, 8, 9, 10, 11, 2, 14, 20, 16, 4, 22, 15, 17, 23, 13, 12, 18, 0, 19, 1]","[[-111, -68, -75, 81, -99, 30], [-115, -46, 59, -35, 7, -76], [123, -5, -127, -61, 37, 79], [-78, 30, 148, -45, 19, -6]]","[1998, 2513, 3005, 3446, 3937, 4412, 5564, 6083, 6497, 13300, 13805, 14404, 17278, 18318, 18827, 19777, 20400, 21417, 22624, 24142, 24625]",0,4,test,7
9,8919.0,498175,mouselab,0,2,"[0.1899999999999999, 0.44, 0.2, 0.17]",125,125,"[6, 7, 8, 9, 10, 11, 14, 2, 20]","[[-53, -41, -95, -99, 15, -86], [-57, 57, 124, 21, -102, -31], [-94, 12, 125, -115, -16, 136], [101, 74, 66, 17, -87, -82]]","[1815, 2259, 2693, 3137, 3581, 4009, 4842, 5454, 6117]",0,2,test,8
9,25570.0,528559,mouselab,0,0,"[0.27999999999999997, 0.22, 0.26, 0.24]",-45,-45,"[0, 1, 2, 3, 4, 5, 6, 12, 18, 7, 13, 19, 11, 17, 23, 20, 14, 8, 9, 15, 21, 22, 16, 10]","[[78, 70, -45, -64, -94, 36], [-14, -138, 51, 142, -58, -20], [-106, -221, -23, -34, 36, -37], [29, -28, 122, 77, 40, -63]]","[2228, 3077, 3622, 4081, 4517, 5139, 6042, 6472, 6900, 7475, 7834, 8245, 9614, 9966, 10336, 15763, 16116, 16672, 17412, 17881, 18310, 18682, 19039, 19406]",0,2,test,9
6,5217.0,8027,mouselab,0,3,"[0.2, 0.2, 0.1, 0.5]",-29,-29,[],"[[18, 35, -49, 8, -2, 32], [-57, -20, 3, -66, -14, -104], [58, -55, 47, 167, 69, 78], [-213, 15, -215, 59, -29, -29]]",[],8,4,instruct1,0
6,1351.0,10345,mouselab,0,3,"[0.2, 0.2, 0.1, 0.5]",59,59,[],"[[18, 35, -49, 8, -2, 32], [-57, -20, 3, -66, -14, -104], [58, -55, 47, 167, 69, 78], [-213, 15, -215, 59, -29, -29]]",[],8,3,instruct1,1
6,1314.0,12236,mouselab,0,3,"[0.2, 0.2, 0.1, 0.5]",59,59,[],"[[18, 35, -49, 8, -2, 32], [-57, -20, 3, -66, -14, -104], [58, -55, 47, 167, 69, 78], [-213, 15, -215, 59, -29, -29]]",[],8,3,instruct1,2
6,982.0,13952,mouselab,0,1,"[0.33999999999999997, 0.3, 0.14, 0.22]",67,67,[],"[[-228, -34, -7, 39, 50, 42], [69, 3, -31, 67, 91, 64], [-92, 8, -137, -68, 88, 54], [28, -105, -82, -18, 52, 3]]",[],8,3,instruct2,0
6,968.0,15608,mouselab,0,2,"[0.23, 0.24, 0.33, 0.2]",164,164,[],"[[-6, -21, 7, 55, 22, 13], [41, -81, -43, 189, 161, 6], [75, 53, 49, 164, 152, 93], [166, 11, 103, 189, -39, 156]]",[],8,3,instruct2,1
6,863.0,17143,mouselab,0,0,"[0.19, 0.35, 0.28, 0.18]",162,162,[],"[[-40, 62, 12, 55, 125, 162], [-14, 130, -17, 12, -81, 164], [13, 61, -103, -15, 11, 74], [-64, -95, -6, -94, 21, 37]]",[],8,5,instruct2,2
6,1665.0,21550,mouselab,0,0,"[0.3, 0.27, 0.16, 0.27]",-15,-15,[],"[[-148, 9, -15, -32, -27, -91], [170, -28, -148, 118, -33, -10], [-18, 76, 0, -54, 54, -19], [33, 35, -24, 92, 29, -93]]",[],8,2,instruct3,0
6,808.0,23216,mouselab,0,2,"[0.22, 0.18, 0.22, 0.38]",-95,-95,[],"[[112, 40, 62, -8, -24, 24], [-51, -100, 52, -43, 100, -90], [-3, -133, 13, 60, -95, 25], [-108, -16, 77, 84, 30, -13]]",[],8,4,instruct3,1
6,690.0,24722,mouselab,0,2,"[0.21, 0.3, 0.29, 0.2]",-127,-127,[],"[[-111, -68, -75, 81, -99, 30], [-115, -46, 59, -35, 7, -76], [123, -5, -127, -61, 37, 79], [-78, 30, 148, -45, 19, -6]]",[],8,2,instruct3,2
6,818.0,27687,mouselab,0,1,"[0.17, 0.41, 0.18, 0.24]",-176,-176,[],"[[-95, 157, 99, -83, -42, -46], [-176, -86, -15, -78, -157, 95], [18, 27, -43, 19, -3, -40], [33, -3, -26, -65, 60, 33]]",[],8,0,test,0
6,575.0,29105,mouselab,0,3,"[0.16, 0.21, 0.29, 0.34]",39,39,[],"[[2, 256, -76, 0, -40, -22], [-63, 30, 65, -93, 4, -62], [-50, -39, -104, -89, -78, 52], [160, 50, 39, -11, -5, 25]]",[],8,2,test,1
6,568.0,30718,mouselab,0,0,"[0.28, 0.16, 0.33, 0.23]",-61,-61,[],"[[101, -61, 102, -166, 37, 158], [-105, 14, -11, -32, 13, 58], [-99, -80, 46, 70, -38, -161], [-8, 6, 59, -121, 167, -56]]",[],8,1,test,2
6,602.0,32202,mouselab,0,3,"[0.17, 0.26, 0.32, 0.25]",-5,-5,[],"[[98, 38, 84, 40, -23, 36], [-104, -51, -38, -64, -38, -154], [40, -109, 9, -105, 59, 128], [20, -126, -16, 86, -5, -95]]",[],8,4,test,3
6,542.0,33528,mouselab,0,0,"[0.46, 0.19, 0.16, 0.19]",-29,-29,[],"[[-7, 37, -16, -29, -11, -44], [105, 1, 43, 42, -45, -56], [-18, 27, -19, -198, -2, 165], [-46, 85, 48, -28, 12, -14]]",[],8,3,test,4
6,629.0,34925,mouselab,0,1,"[0.17, 0.4, 0.23, 0.2]",0,0,[],"[[51, -21, -70, 26, -9, 118], [4, 16, 20, 71, 35, 0], [10, -156, -21, -41, -15, 29], [12, -74, -153, 8, -2, 31]]",[],8,5,test,5
6,639.0,36452,mouselab,0,0,"[0.2, 0.33, 0.26, 0.21]",-68,-68,[],"[[-54, 33, -68, 62, -18, 19], [-103, 72, 72, -47, 67, -83], [1, -28, 71, -31, -58, 11], [184, -94, 26, -85, -61, -19]]",[],8,2,test,6
6,733.0,37985,mouselab,0,2,"[0.23, 0.17, 0.35, 0.25]",-85,-85,[],"[[-80, 3, 47, 109, -40, 136], [-48, 39, 24, 22, 18, -145], [-20, -11, -127, -85, 67, 83], [7, 150, -38, -44, 11, 54]]",[],8,3,test,7
6,856.0,39794,mouselab,0,1,"[0.3, 0.26, 0.29, 0.15]",100,100,[],"[[-86, -118, 8, 83, 44, 36], [-20, 100, -59, 67, 6, 58], [-1, -112, 78, 11, -4, -71], [-55, -36, -123, 90, 105, -40]]",[],8,1,test,8
6,614.0,41665,mouselab,0,0,"[0.38, 0.22, 0.13, 0.27]",19,19,[],"[[27, 107, -64, -19, 19, 57], [-136, -151, -4, 0, -4, -111], [-86, -80, 24, -59, 95, -90], [-77, -87, -6, -124, 36, -12]]",[],8,4,test,9
2,40149.0,53360,mouselab,0,3,"[0.2, 0.2, 0.1, 0.5]",-177,-177,[],"[[-35, -108, -355, -124, -61, 6], [-66, 242, -401, -83, -172, -30], [-317, 8, -5, -23, 203, 360], [-177, 168, -60, 97, 100, 172]]",[],8,0,instruct1,0
2,9599.0,71016,mouselab,0,1,"[0.2, 0.2, 0.1, 0.5]",242,242,[],"[[-35, -108, -355, -124, -61, 6], [-66, 242, -401, -83, -172, -30], [-317, 8, -5, -23, 203, 360], [-177, 168, -60, 97, 100, 172]]",[],8,1,instruct1,1
2,8038.0,80935,mouselab,0,3,"[0.2, 0.2, 0.1, 0.5]",-60,-60,[],"[[-35, -108, -355, -124, -61, 6], [-66, 242, -401, -83, -172, -30], [-317, 8, -5, -23, 203, 360], [-177, 168, -60, 97, 100, 172]]",[],8,2,instruct1,2
2,15135.0,99898,mouselab,0,3,"[0.23999999999999977, 0.32, 0.16, 0.28]",205,205,[],"[[-129, 273, 213, 100, -287, -110], [-11, 234, 2, 187, 71, 28], [100, 191, -110, 138, 6, -53], [44, 205, 99, 102, 11, 141]]",[],8,1,instruct2,0
2,2093.0,105504,mouselab,0,3,"[0.27, 0.26, 0.23, 0.24]",314,314,[],"[[-134, 110, -213, 73, -50, 147], [41, -130, -126, -216, -61, 67], [64, 134, -77, 92, -294, 152], [256, -91, 47, -332, -217, 314]]",[],8,5,instruct2,1
2,2930.0,110248,mouselab,0,0,"[0.18000000000000002, 0.23, 0.3, 0.29]",436,436,[],"[[-137, 419, 314, 281, 7, 436], [67, -415, -267, 33, 3, 122], [-46, 193, -65, 105, 1, 243], [103, 55, -238, -29, 137, 198]]",[],8,5,instruct2,2
2,14449.0,129296,mouselab,88,2,"[0.24, 0.23, 0.34, 0.19]",30,-58,"[3, 14, 16, 23, 11, 19, 12, 7, 1, 2, 8]","[[161, -155, 55, -117, 12, 179], [340, -364, 293, -33, 273, -5], [-26, 129, 30, -17, -297, 179], [198, -45, -195, 29, -193, 25]]","[6031, 6983, 7791, 8383, 9030, 10383, 10927, 11520, 11991, 12463, 12910]",8,2,instruct3,0
2,4023.0,135217,mouselab,16,3,"[0.2, 0.19, 0.41, 0.2]",-163,-179,"[7, 14]","[[227, -54, 76, -162, 349, 57], [-113, -27, 122, -104, 6, -77], [42, 37, 203, -210, 206, -12], [44, -230, -163, -104, -67, 273]]","[1871, 2447]",8,2,instruct3,1
2,7288.0,144687,mouselab,72,1,"[0.36, 0.18, 0.2, 0.26]",30,-42,"[7, 15, 16, 17, 22, 10, 12, 6, 18]","[[37, 25, -84, -88, -256, -197], [30, -188, -107, 247, -74, 33], [84, -151, 105, -294, 105, -116], [-5, -92, 110, 165, -165, 212]]","[1327, 2302, 2775, 3287, 3751, 4367, 5120, 5671, 6319]",8,0,instruct3,2
2,5834.0,160225,mouselab,32,3,"[0.26, 0.3, 0.19, 0.25]",32,0,"[6, 7, 8, 9]","[[-353, 81, 97, 334, -263, 82], [65, 50, 19, 132, -63, -135], [66, -84, -11, 3, 43, -106], [124, -84, -160, 32, -57, -81]]","[2497, 3366, 4113, 4698]",8,3,test,0
2,3063.0,165232,mouselab,8,0,"[0.13999999999999999, 0.29, 0.31, 0.26]",-63,-71,[12],"[[-63, 167, -266, 94, 175, -151], [20, -139, -52, -42, 96, 174], [233, 22, -65, 7, -114, 235], [56, -91, -41, -168, 107, -31]]",[1767],8,0,test,1
2,3830.0,171241,mouselab,24,1,"[0.3, 0.28, 0.18, 0.24]",64,40,"[0, 1, 2]","[[-277, 70, 262, -165, 148, 30], [-119, 13, 64, -36, -211, -240], [-31, 147, -104, 136, -143, -127], [27, 82, -181, -135, 32, 313]]","[1952, 2519, 3007]",8,2,test,2
2,2799.0,176080,mouselab,16,0,"[0.13999999999999999, 0.15, 0.48, 0.23]",64,48,"[12, 13]","[[64, 199, -165, -19, -153, -39], [-192, -144, -104, -1, -169, -128], [230, 96, 65, -83, 2, -116], [88, -109, -339, 131, 243, 38]]","[1566, 2158]",8,0,test,3
2,2297.0,180544,mouselab,8,3,"[0.17, 0.17, 0.37, 0.29]",138,130,[12],"[[180, -208, -56, -146, 37, -74], [-4, 87, 117, -38, -110, -101], [361, -212, -169, 78, 368, 145], [138, -43, 114, 128, 83, -107]]",[1079],8,0,test,4
2,6321.0,188528,mouselab,48,3,"[0.32, 0.14, 0.17, 0.37]",227,179,"[18, 19, 20, 21, 22, 23]","[[259, 150, 184, 160, -210, -102], [-159, 222, 51, -204, 121, 33], [-106, 10, -11, 57, -52, -58], [32, -82, -282, -80, -69, 227]]","[1832, 3440, 3928, 4432, 4888, 5384]",8,5,test,5
2,5561.0,195888,mouselab,24,2,"[0.16999999999999998, 0.28, 0.28, 0.27]",26,2,"[6, 7, 8]","[[-11, -129, 254, 117, -124, 72], [37, 169, -150, -117, -39, -203], [151, 26, 107, 39, 148, -66], [-37, 167, 127, -44, -102, 37]]","[2543, 3984, 4447]",8,1,test,6
2,4568.0,201968,mouselab,48,0,"[0.3, 0.24, 0.19, 0.27]",160,112,"[0, 1, 2, 3, 4, 5]","[[50, 160, -152, -205, 75, 83], [-114, 50, 4, -156, 58, -239], [147, 4, 105, 179, 53, 18], [-73, -42, 173, -197, -173, -90]]","[1599, 2031, 2599, 3143, 3608, 3919]",8,1,test,7
2,3937.0,208344,mouselab,48,2,"[0.19999999999999998, 0.14, 0.34, 0.32]",187,139,"[12, 13, 14, 15, 16, 17]","[[22, -53, 76, -17, -211, -79], [-101, -175, -97, -184, -334, 215], [-23, -62, 74, 75, 187, -50], [-43, -66, -22, -144, -88, -79]]","[1497, 1854, 2232, 2569, 2905, 3288]",8,4,test,8
2,4775.0,215073,mouselab,48,2,"[0.33, 0.15, 0.32, 0.2]",75,27,"[0, 1, 2, 3, 4, 5]","[[-334, 33, 30, -196, -69, 232], [90, 214, 207, -24, 109, -197], [-233, 192, -114, 49, -200, 75], [-133, 3, -132, -109, 6, -25]]","[2008, 2423, 2831, 3153, 3487, 3791]",8,5,test,9
