pid,time_elapsed,trial_type,rt,payoff_matrix,cost,click_cost,choice_index,clicks,payoff_value,probabilities,net_payoff,payoff_index,click_times,answers,correct,block,trial_index
12,42625,mouselab,32098.0,"[[84, -109, 26, -31, 157, 112], [426, 115, -4, 406, 50, -119], [25, 30, -160, -208, 112, -346], [-213, -49, -153, 199, 238, 66]]",2,0,0,[],-213,"[0.2, 0.2, 0.1, 0.5]",-213,3,[],,,instruct1,0
12,52633,mouselab,3804.0,"[[84, -109, 26, -31, 157, 112], [426, 115, -4, 406, 50, -119], [25, 30, -160, -208, 112, -346], [-213, -49, -153, 199, 238, 66]]",2,0,1,[],-49,"[0.2, 0.2, 0.1, 0.5]",-49,3,[],,,instruct1,1
12,58139,mouselab,2643.0,"[[84, -109, 26, -31, 157, 112], [426, 115, -4, 406, 50, -119], [25, 30, -160, -208, 112, -346], [-213, -49, -153, 199, 238, 66]]",2,0,2,[],-153,"[0.2, 0.2, 0.1, 0.5]",-153,3,[],,,instruct1,2
12,128109,mouselab,14314.0,"[[2, -131, -256, -49, -37, -121], [393, 1, 323, -88, 102, -197], [318, 203, -165, -52, -54, 281], [356, 34, 282, -84, 132, -1]]",2,0,0,[],356,"[0.02, 0.05, 0.33, 0.6]",356,3,[],,,instruct2,0
12,140780,mouselab,8977.0,"[[-82, -146, -67, -42, -123, 16], [-190, -89, -158, 149, 95, 195], [-45, -6, 157, 77, 189, 230], [-64, -300, -4, 99, -132, 135]]",2,0,5,[],16,"[0.45, 0.31, 0.02, 0.22]",16,0,[],,,instruct2,1
12,157702,mouselab,12520.0,"[[-185, 88, -151, 11, 118, -44], [155, -96, -243, -245, 213, -152], [1, -88, -16, -93, 80, 30], [104, 8, -110, -73, 304, 245]]",2,0,4,[],80,"[0.02, 0.46, 0.18, 0.34]",80,2,[],,,instruct2,2
12,191593,mouselab,30404.0,"[[-30, 184, -54, -5, 36, 0], [-60, 249, -83, 159, -79, 130], [30, 181, 171, -48, 9, -44], [-19, -72, -113, 144, 80, -40]]",2,6,3,"[0, 3, 5]",-5,"[0.52, 0.06, 0.12, 0.3]",-11,0,"[20858, 22965, 24852]",,,instruct3,0
12,207905,mouselab,9130.0,"[[-24, 2, 5, 214, -133, -22], [519, -193, -181, -210, 45, 248], [220, 52, 183, 7, 129, 135], [48, -68, 180, -159, 127, 9]]",2,6,4,"[19, 22, 15]",127,"[0.01, 0.05, 0.37, 0.57]",121,3,"[5082, 6298, 7806]",,,instruct3,1
12,221377,mouselab,9184.0,"[[30, -20, -140, 152, -69, -342], [1, 61, 7, 117, -104, -163], [-82, 3, -294, 127, -333, -146], [68, 229, -30, -150, 78, -168]]",2,8,1,"[2, 5, 8, 1]",61,"[0.42, 0.35, 0.21, 0.02]",53,1,"[2888, 3656, 5166, 7160]",,,instruct3,2
12,240299,mouselab,8135.0,"[[-75, 1, 69, 86, 66, -131], [-68, -38, -111, -12, 122, 127], [-34, -135, -29, 137, 282, 83], [36, 176, -126, 252, 42, -45]]",2,6,3,"[1, 3, 5]",-12,"[0.74, 0.17, 0.01, 0.08]",-18,1,"[5225, 6125, 6987]",,,test,0
12,248335,mouselab,5912.0,"[[67, -98, -97, 161, -176, -362], [36, 98, -192, -33, 116, -132], [-169, -131, -190, 19, -77, -149], [256, -5, 176, -110, 110, -95]]",2,6,0,"[20, 22, 18]",256,"[0.05, 0.05, 0.05, 0.85]",250,3,"[1978, 3834, 4758]",,,test,1
12,256064,mouselab,5612.0,"[[-76, -41, 21, -110, 285, -84], [93, -70, 184, -68, -66, 40], [121, -92, -193, -298, -136, 258], [-93, -74, -206, -71, 12, 140]]",2,6,4,"[20, 14, 22]",-136,"[0.03, 0.1, 0.38, 0.49]",-142,2,"[1778, 3472, 4258]",,,test,2
12,267557,mouselab,7159.0,"[[177, -124, -143, -21, 183, -91], [94, 31, -32, 89, -81, -22], [103, -203, 40, 35, 97, -130], [35, 41, -70, 44, -94, -125]]",2,6,0,"[8, 10, 6]",94,"[0.06, 0.61, 0.29, 0.04]",88,1,"[1939, 2879, 6197]",,,test,3
12,279511,mouselab,9168.0,"[[-149, -416, -107, 23, -25, 272], [-188, -22, -159, 68, 1, -385], [-71, -58, -93, 23, -163, -61], [124, -3, 226, -389, -65, -145]]",2,10,3,"[13, 17, 12, 1, 15]",23,"[0.32, 0.04, 0.57, 0.07]",13,2,"[1856, 2840, 4318, 6836, 8406]",,,test,4
12,288033,mouselab,5606.0,"[[7, -186, 84, -238, -15, 84], [16, 118, 52, 14, -28, 93], [-153, 311, -66, -170, 108, 21], [-80, 94, -143, 9, -199, 152]]",2,6,5,"[21, 18, 23]",84,"[0.25, 0.19, 0.07, 0.49]",78,0,"[2488, 3512, 4528]",,,test,5
12,297765,mouselab,7421.0,"[[59, 48, 41, -56, 128, -145], [13, -125, -19, 221, -110, 269], [68, 84, 124, -241, -195, -121], [211, 1, 142, 128, -83, 23]]",2,8,3,"[9, 3, 10, 4]",-56,"[0.31, 0.56, 0.12, 0.01]",-64,0,"[2125, 3063, 4835, 5735]",,,test,6
12,309335,mouselab,8822.0,"[[53, 32, -125, -164, -180, 194], [-61, -92, -83, -37, -141, 68], [-96, 241, 216, -126, 171, -207], [-201, 44, 208, -163, -42, 6]]",2,10,2,"[20, 8, 21, 10, 18]",208,"[0.05000000000000001, 0.32, 0.02, 0.61]",198,3,"[1948, 2864, 3902, 4858, 7522]",,,test,7
12,316565,mouselab,5012.0,"[[-50, 21, -25, 70, 10, 466], [237, -120, -58, 52, -172, 29], [125, 111, 23, -101, 8, 235], [105, -89, -166, 148, -239, -179]]",2,8,1,"[15, 3, 1, 13]",21,"[0.42, 0.15, 0.42, 0.01]",13,0,"[2010, 2648, 3250, 3803]",,,test,8
12,325541,mouselab,7506.0,"[[-97, -321, -93, -97, -10, 281], [-22, 21, -179, 121, 6, -480], [61, -90, 123, 105, -7, 6], [-133, 30, 71, -109, -237, 201]]",2,10,3,"[8, 11, 6, 7, 9]",121,"[0.06000000000000011, 0.6, 0.25, 0.09]",111,1,"[2140, 2972, 3925, 4556, 6558]",,,test,9
17,150230,mouselab,129271.0,"[[-11, -129, 254, 117, -124, 72], [37, 169, -150, -117, -39, -203], [151, 26, 107, 39, 148, -66], [-37, 167, 127, -44, -102, 37]]",2,0,0,[],37,"[0.2, 0.2, 0.1, 0.5]",37,1,[],,,instruct1,0
17,164670,mouselab,4096.0,"[[-11, -129, 254, 117, -124, 72], [37, 169, -150, -117, -39, -203], [151, 26, 107, 39, 148, -66], [-37, 167, 127, -44, -102, 37]]",2,0,1,[],167,"[0.2, 0.2, 0.1, 0.5]",167,3,[],,,instruct1,1
17,173558,mouselab,2425.0,"[[-11, -129, 254, 117, -124, 72], [37, 169, -150, -117, -39, -203], [151, 26, 107, 39, 148, -66], [-37, 167, 127, -44, -102, 37]]",2,0,2,[],127,"[0.2, 0.2, 0.1, 0.5]",127,3,[],,,instruct1,2
17,344046,mouselab,34368.0,"[[55, 36, 141, 180, -3, 215], [148, -22, 78, 2, -184, 178], [78, 60, -179, 36, 128, 143], [103, 164, 17, 268, 40, 331]]",2,0,0,[],103,"[0.24, 0.26, 0.14, 0.36]",103,3,[],,,instruct2,0
17,364438,mouselab,12216.0,"[[160, -69, -48, 11, 140, -231], [232, -157, 166, 9, -135, 147], [346, 288, -351, -4, 135, -30], [184, 164, 81, 72, -155, -74]]",2,0,0,[],184,"[0.23, 0.2, 0.2, 0.37]",184,3,[],,,instruct2,1
17,373862,mouselab,6712.0,"[[253, 34, -131, -85, -181, 213], [187, -203, 31, 75, -61, 161], [97, 62, -198, -65, -14, -76], [338, -74, -191, -93, -16, 280]]",2,0,0,[],97,"[0.22, 0.33, 0.25, 0.2]",97,2,[],,,instruct2,2
17,408750,mouselab,23640.0,"[[-123, 46, -42, 27, -173, 111], [124, 119, -193, 16, 85, -96], [-55, -26, -261, -66, -7, -22], [-107, -105, 117, -25, -264, -176]]",2,6,5,"[0, 8, 21]",-22,"[0.13, 0.32, 0.3, 0.25]",-28,2,"[12504, 14488, 17736]",,,instruct3,0
17,437862,mouselab,23929.0,"[[50, -296, -10, -89, 60, 86], [20, 1, 60, -138, -284, 207], [-112, 183, 28, 4, 40, -7], [221, -6, 210, 64, -48, -14]]",2,8,0,"[0, 6, 12, 18]",-112,"[0.3, 0.3, 0.25, 0.15]",-120,2,"[14152, 15696, 16720, 18528]",,,instruct3,1
17,466894,mouselab,22401.0,"[[-348, 178, 112, 95, 11, 153], [-288, -182, 69, -12, 85, 128], [24, 86, 188, 53, -47, 144], [12, -157, 76, 72, -57, -88]]",2,14,2,"[1, 13, 7, 14, 8, 2, 20]",188,"[0.31, 0.34, 0.21, 0.14]",174,2,"[4928, 8440, 10824, 12600, 15497, 17832, 19609]",,,instruct3,2
17,502822,mouselab,21417.0,"[[20, 113, -129, 104, 225, -349], [-74, 37, -66, -161, 229, 35], [145, -230, -80, -132, -184, -78], [-159, -2, 261, -179, 166, -53]]",2,18,4,"[0, 6, 7, 13, 8, 4, 10, 16, 22]",166,"[0.26, 0.19, 0.21, 0.34]",148,3,"[4520, 5512, 7344, 8608, 10968, 13048, 14328, 15536, 16720]",,,test,0
17,527854,mouselab,21489.0,"[[-9, 95, -245, -79, 17, 41], [234, 215, 100, -68, 56, 287], [-77, -125, -1, -114, -117, 232], [-28, 5, 132, 53, 27, 366]]",2,24,5,"[0, 6, 12, 18, 2, 9, 4, 16, 5, 11, 17, 23]",41,"[0.22, 0.24, 0.21, 0.33]",17,0,"[2752, 4352, 5856, 6888, 8656, 10568, 12064, 13680, 15224, 16088, 17920, 18912]",,,test,1
17,544214,mouselab,14072.0,"[[-182, -73, -111, 49, 58, -95], [-135, -218, -10, -1, -213, -83], [-160, -104, 212, 100, -40, -355], [358, -28, -113, 130, 324, 2]]",2,18,3,"[0, 2, 4, 10, 5, 3, 9, 15, 21]",130,"[0.32, 0.2, 0.27, 0.21]",112,3,"[1672, 3208, 5008, 6400, 7824, 9224, 10136, 11248, 12112]",,,test,2
17,550486,mouselab,1256.0,"[[224, 18, -50, 193, 101, -101], [218, -93, -131, -23, -160, 194], [40, -170, 93, 230, 380, 14], [85, 3, 215, 153, 55, -131]]",2,0,0,[],85,"[0.17, 0.22, 0.29, 0.32]",85,3,[],,,test,3
17,565070,mouselab,12657.0,"[[-177, -66, -125, -31, 44, -192], [53, 188, -95, 118, 26, -264], [159, -134, 153, 88, -22, -261], [-334, 133, 120, 109, 91, -20]]",2,14,4,"[0, 1, 2, 4, 10, 16, 22]",91,"[0.37, 0.22, 0.16, 0.25]",77,3,"[2296, 3496, 4856, 6648, 7512, 9208, 10288]",,,test,4
17,575014,mouselab,7656.0,"[[0, 15, 35, 284, -104, -150], [86, -70, 56, -66, 172, -371], [45, 263, -25, -19, 56, -341], [-20, 35, 151, -40, -189, 95]]",2,8,0,"[0, 6, 12, 18]",86,"[0.24, 0.26, 0.23, 0.27]",78,1,"[1400, 2424, 3408, 4472]",,,test,5
17,619733,mouselab,42535.0,"[[56, 4, -80, -248, -110, -128], [-94, -38, 127, 65, -49, -127], [-56, -155, -172, 35, -247, 23], [-77, 17, 74, -164, -111, -19]]",2,48,0,"[0, 6, 7, 2, 3, 4, 5, 1, 13, 14, 12, 15, 10, 18, 19, 20, 8, 9, 21, 22, 16, 11, 17, 23]",56,"[0.21, 0.26, 0.31, 0.22]",8,0,"[1455, 2424, 3895, 5831, 7143, 8559, 9727, 11487, 12319, 14431, 15575, 17487, 19335, 21983, 23062, 25142, 25966, 27198, 27974, 29110, 29919, 30742, 31822, 32334]",,,test,6
17,635493,mouselab,13248.0,"[[-35, -108, -355, -124, -61, 6], [-66, 242, -401, -83, -172, -30], [-317, 8, -5, -23, 203, 360], [-177, 168, -60, 97, 100, 172]]",2,18,5,"[0, 1, 2, 3, 4, 5, 11, 17, 23]",172,"[0.21, 0.31, 0.25, 0.23]",154,3,"[1231, 2855, 4943, 5759, 6815, 8207, 9039, 10295, 11271]",,,test,7
17,657381,mouselab,19320.0,"[[-137, 192, -35, -263, -76, -37], [27, -85, -153, 62, -142, -142], [27, -172, 23, 193, 39, 244], [-149, 53, 145, 29, 98, 22]]",2,28,3,"[0, 1, 7, 13, 2, 8, 15, 9, 3, 21, 4, 10, 17, 11]",29,"[0.25, 0.29, 0.16, 0.3]",1,3,"[1159, 2895, 4119, 5272, 6855, 7711, 8695, 9512, 10319, 11479, 13447, 14272, 15231, 15871]",,,test,8
17,673158,mouselab,12720.0,"[[-161, 46, -355, 69, -260, -91], [-74, -98, -66, 259, -246, -50], [120, 285, -120, 19, 256, -38], [-180, -157, -51, -21, -405, 52]]",2,16,3,"[0, 6, 7, 14, 15, 9, 3, 21]",19,"[0.31, 0.3, 0.19, 0.2]",3,2,"[1400, 2248, 4648, 5600, 6816, 7624, 8352, 9432]",,,test,9
6,46314,mouselab,33614.0,"[[-50, -51, -82, -27, 41, 81], [-24, -22, 86, -44, -45, 105], [-2, 127, 6, 61, -19, 30], [46, -74, -69, 48, 69, 54]]",2,0,0,[],46,"[0.2, 0.2, 0.1, 0.5]",46,3,[],,,instruct1,0
6,53432,mouselab,2718.0,"[[-50, -51, -82, -27, 41, 81], [-24, -22, 86, -44, -45, 105], [-2, 127, 6, 61, -19, 30], [46, -74, -69, 48, 69, 54]]",2,0,1,[],-22,"[0.2, 0.2, 0.1, 0.5]",-22,1,[],,,instruct1,1
6,58738,mouselab,3803.0,"[[-50, -51, -82, -27, 41, 81], [-24, -22, 86, -44, -45, 105], [-2, 127, 6, 61, -19, 30], [46, -74, -69, 48, 69, 54]]",2,0,2,[],86,"[0.2, 0.2, 0.1, 0.5]",86,1,[],,,instruct1,2
6,157964,mouselab,18617.0,"[[74, -43, -10, 35, 84, 41], [-103, -173, 45, 31, 79, -8], [-90, -48, -74, 56, 76, -191], [147, -8, -122, -136, 183, 38]]",2,0,4,[],79,"[0.07, 0.63, 0.16, 0.14]",79,1,[],,,instruct2,0
6,169567,mouselab,8857.0,"[[-131, 30, 68, 99, -28, 9], [-20, -2, -161, 44, -26, 23], [0, 12, 113, 123, 32, 65], [40, 23, 16, 65, -2, -64]]",2,0,3,[],99,"[0.77, 0.09, 0.11, 0.03]",99,0,[],,,instruct2,1
6,180204,mouselab,8372.0,"[[-204, 149, -18, -135, -82, 165], [37, 14, -13, -9, 87, 120], [-117, 25, 32, 15, 3, 40], [47, 61, -19, -75, -18, 97]]",2,0,5,[],120,"[0.039999999999999994, 0.89, 0.05, 0.02]",120,1,[],,,instruct2,2
6,217754,mouselab,32606.0,"[[-77, -23, 60, -69, -156, 25], [-44, 23, -92, -95, -112, 42], [-76, 53, -2, 70, 40, 68], [-90, 32, -148, 57, -23, -9]]",2,14,2,"[0, 2, 4, 1, 3, 8, 7]",-148,"[0.12, 0.1, 0.01, 0.77]",-162,3,"[16876, 18206, 20031, 25039, 25829, 28833, 30707]",,,instruct3,0
6,230993,mouselab,9937.0,"[[-92, 90, -34, 2, 105, -34], [-29, -9, -14, -27, 50, 55], [106, -41, -82, -40, -43, 25], [14, -38, -42, -31, 121, 108]]",2,6,4,"[6, 8, 10]",50,"[0.09000000000000001, 0.51, 0.39, 0.01]",44,1,"[5857, 7247, 8185]",,,instruct3,1
6,246044,mouselab,12126.0,"[[-80, -107, -38, 64, 33, -40], [-127, -18, -7, -15, -49, 179], [-51, -67, 71, 53, -88, 70], [-9, 79, -77, -156, 25, -28]]",2,12,5,"[6, 7, 8, 9, 10, 11]",179,"[0.44, 0.5, 0.04, 0.02]",167,1,"[5826, 7126, 7808, 9061, 9681, 10266]",,,instruct3,2
6,275727,mouselab,12061.0,"[[-88, -129, 59, 44, 141, 73], [57, -36, 0, -184, -58, 115], [-71, 75, 65, -85, 75, -28], [-96, 154, 2, 119, 6, 25]]",2,12,2,"[12, 13, 14, 15, 7, 8]",2,"[0.18, 0.27, 0.49, 0.06]",-10,3,"[3884, 4790, 6003, 6780, 8092, 10378]",,,test,0
6,284106,mouselab,5838.0,"[[2, 88, -81, -68, -69, -20], [75, 44, 2, -67, -177, 78], [106, 39, 49, -49, 99, -9], [99, 65, 57, 6, -18, 53]]",2,4,0,"[12, 13]",106,"[0.12, 0.01, 0.85, 0.02]",102,2,"[2304, 4215]",,,test,1
6,296723,mouselab,10896.0,"[[43, 6, 10, 64, 4, 0], [-88, 30, -65, -30, -84, -10], [6, 51, -15, 10, -22, -26], [4, -118, 14, -27, 46, 28]]",2,12,4,"[18, 19, 21, 22, 23, 20]",-84,"[0.02, 0.41, 0.02, 0.55]",-96,1,"[2908, 4437, 5512, 6724, 8046, 9350]",,,test,2
6,309911,mouselab,11746.0,"[[126, -22, 4, 33, -77, -13], [61, -111, 19, -3, 25, 14], [-120, -94, -74, 2, -11, -74], [33, 74, -30, 62, 39, -55]]",2,12,3,"[12, 13, 14, 15, 16, 17]",2,"[0.07999999999999999, 0.21, 0.54, 0.17]",-10,2,"[2192, 2954, 3827, 4674, 5442, 6033]",,,test,3
6,319524,mouselab,7355.0,"[[70, 21, 78, 14, -68, -76], [-35, -191, -49, -5, -73, 26], [-25, -1, 82, 80, 211, 12], [-62, -67, 105, 21, -66, -50]]",2,12,2,"[0, 1, 2, 3, 4, 5]",78,"[0.71, 0.27, 0.01, 0.01]",66,0,"[2448, 3540, 4200, 4907, 5521, 6051]",,,test,4
6,350198,mouselab,27376.0,"[[-67, 64, 23, 23, -111, -123], [17, -51, -23, -1, 14, 46], [-23, 111, 64, 60, -93, -33], [4, 160, -41, -13, 60, -112]]",2,24,3,"[6, 0, 7, 8, 9, 10, 4, 11, 5, 1, 2, 3]",23,"[0.4, 0.42, 0.08, 0.1]",-1,0,"[3433, 5489, 7332, 9537, 10343, 11010, 12439, 13291, 14912, 16908, 18958, 19572]",,,test,5
6,358845,mouselab,6514.0,"[[-20, 36, 41, 36, -10, -74], [93, -124, 101, 100, -22, -27], [14, -74, 208, -53, 111, 10], [28, 0, 8, -33, -9, 71]]",2,4,0,"[6, 18]",-20,"[0.1999999999999999, 0.4, 0.01, 0.39]",-24,0,"[3563, 4646]",,,test,6
6,366967,mouselab,5657.0,"[[64, 100, -77, 1, -31, 22], [-109, -58, 133, -29, -12, 73], [27, -57, 107, 18, -2, -10], [81, 41, 5, 10, -60, 203]]",2,2,0,[0],64,"[0.49, 0.24, 0.02, 0.25]",62,0,[2563],,,test,7
6,379170,mouselab,10453.0,"[[15, -81, 3, 56, -91, -27], [91, -12, 51, 48, -53, -78], [-36, 17, -37, 12, 51, -40], [-16, -45, 33, 60, 42, 117]]",2,10,3,"[18, 19, 20, 21, 3]",56,"[0.31, 0.25, 0.05, 0.39]",46,0,"[2572, 3317, 4331, 5859, 9230]",,,test,8
6,388076,mouselab,7010.0,"[[-20, -5, -68, 26, 6, -90], [42, -87, 18, -41, 124, 74], [-22, -130, 19, 7, 40, 25], [83, -3, -31, 49, 60, -1]]",2,12,3,"[0, 1, 2, 3, 4, 5]",26,"[0.8999999999999999, 0.04, 0.01, 0.05]",14,0,"[2363, 3108, 3761, 4421, 5433, 5995]",,,test,9
13,62057,mouselab,39475.0,"[[-130, -193, -59, 52, -31, 68], [21, -80, 189, 49, 45, -101], [-7, -78, 29, -19, -15, -22], [87, -81, 172, 176, 49, 101]]",2,0,0,[],87,"[0.2, 0.2, 0.1, 0.5]",87,3,[],,,instruct1,0
13,81655,mouselab,2373.0,"[[-130, -193, -59, 52, -31, 68], [21, -80, 189, 49, 45, -101], [-7, -78, 29, -19, -15, -22], [87, -81, 172, 176, 49, 101]]",2,0,1,[],-81,"[0.2, 0.2, 0.1, 0.5]",-81,3,[],,,instruct1,1
13,88897,mouselab,2195.0,"[[-130, -193, -59, 52, -31, 68], [21, -80, 189, 49, 45, -101], [-7, -78, 29, -19, -15, -22], [87, -81, 172, 176, 49, 101]]",2,0,2,[],29,"[0.2, 0.2, 0.1, 0.5]",29,2,[],,,instruct1,2
13,336609,mouselab,29687.0,"[[68, -120, 96, -51, 1, 35], [-3, 92, 166, 3, -258, 154], [-104, -26, 24, -7, -24, -10], [2, 26, 58, -35, -10, -18]]",2,0,2,[],96,"[0.26, 0.21, 0.23, 0.3]",96,0,[],,,instruct2,0
13,341918,mouselab,3937.0,"[[23, 120, -38, 100, 51, 13], [-34, 97, 40, -78, 60, -24], [1, 61, 42, -155, -94, 2], [-17, 70, -97, -27, 46, 20]]",2,0,3,[],-27,"[0.26, 0.22, 0.23, 0.29]",-27,3,[],,,instruct2,1
13,345676,mouselab,1509.0,"[[-15, 69, 40, 18, 96, -94], [-41, 2, 61, 8, 82, -26], [-61, -92, 99, 105, 141, 89], [-93, -9, -81, -106, 31, 14]]",2,0,1,[],69,"[0.44, 0.11, 0.23, 0.22]",69,0,[],,,instruct2,2
13,431770,mouselab,80450.0,"[[-136, 94, 11, -16, 59, -93], [-83, -122, 50, 61, 70, -135], [13, 121, 36, 109, -13, 38], [-66, -11, -53, 17, -12, 5]]",2,48,0,"[17, 11, 5, 23, 22, 16, 4, 10, 3, 9, 15, 21, 20, 14, 8, 2, 1, 7, 13, 19, 18, 12, 6, 0]",-136,"[0.31, 0.2, 0.28, 0.21]",-184,0,"[48632, 51057, 51960, 52791, 65126, 66323, 67843, 68485, 70121, 70745, 71242, 71655, 72206, 72705, 73081, 73691, 74737, 75132, 75479, 75829, 76216, 76579, 76921, 77251]",,,instruct3,0
13,435046,mouselab,1256.0,"[[-12, 137, -73, 1, 92, 32], [2, -34, 82, 16, 17, -57], [-5, -80, -32, 99, -28, -22], [155, -40, -35, -60, 17, 110]]",2,0,5,[],32,"[0.31, 0.12, 0.26, 0.31]",32,0,[],,,instruct3,1
13,436934,mouselab,807.0,"[[-111, 33, -54, 52, 104, 41], [-11, -170, -14, -41, -19, -114], [33, -82, -107, 7, 82, -63], [33, 87, -37, 29, 45, -18]]",2,0,4,[],104,"[0.31, 0.2, 0.29, 0.2]",104,0,[],,,instruct3,2
13,504553,mouselab,57057.0,"[[46, 119, -36, -13, 14, -51], [-145, 68, -21, -42, 45, 146], [-26, -26, -57, -42, -13, -78], [8, -6, -91, 52, 71, 6]]",2,14,3,"[0, 5, 18, 15, 16, 11, 9]",-13,"[0.19, 0.41, 0.18, 0.22]",-27,0,"[1902, 2616, 3444, 4956, 6358, 8088, 56204]",,,test,0
13,507966,mouselab,899.0,"[[-108, -43, -62, 7, 51, 21], [122, 43, -44, -94, -36, 1], [67, 147, -91, -23, 20, 66], [-71, 4, -91, 1, -54, 100]]",2,0,1,[],4,"[0.18000000000000002, 0.25, 0.38, 0.19]",4,3,[],,,test,1
13,510902,mouselab,710.0,"[[-23, -52, 13, 120, 50, 111], [-59, 6, 73, 31, 48, -118], [-45, 37, -55, -32, -111, 36], [-73, 72, -73, -19, 63, 57]]",2,0,3,[],-32,"[0.3, 0.19, 0.18, 0.33]",-32,2,[],,,test,2
13,513238,mouselab,882.0,"[[-4, -56, 15, 11, 12, -210], [140, -17, 0, -90, -17, 39], [-89, 12, -68, 57, 35, 42], [113, -41, 7, 53, -62, 2]]",2,0,4,[],35,"[0.25, 0.23, 0.2, 0.32]",35,2,[],,,test,3
13,515910,mouselab,853.0,"[[-23, -101, -101, 46, 27, 65], [11, 20, -91, 74, -136, 41], [5, -69, 16, -47, 89, -30], [-65, -88, 120, 6, 36, 57]]",2,0,5,[],65,"[0.25, 0.36, 0.16, 0.23]",65,0,[],,,test,4
13,518840,mouselab,627.0,"[[-21, -86, 11, -30, -54, -48], [60, -94, -32, 87, 37, 16], [75, -9, 31, -19, 46, -114], [69, 5, -73, -52, 44, 16]]",2,0,2,[],-32,"[0.16, 0.31, 0.28, 0.25]",-32,1,[],,,test,5
13,521350,mouselab,811.0,"[[166, 44, -27, -71, 17, -77], [-12, 121, -109, 78, 33, -92], [-40, 165, 69, -78, -22, 12], [48, 61, 139, 91, 20, 70]]",2,0,4,[],20,"[0.21, 0.26, 0.32, 0.21]",20,3,[],,,test,6
13,533074,mouselab,10179.0,"[[42, -24, 101, -100, 58, -27], [-5, -156, 35, -50, -12, -147], [53, -58, 7, -106, 64, 28], [-111, 76, 48, -108, 91, 15]]",2,0,5,[],15,"[0.16999999999999998, 0.25, 0.34, 0.24]",15,3,[],,,test,7
13,537380,mouselab,3024.0,"[[-27, -93, 2, -85, 95, 19], [-208, -13, 68, -28, -28, -68], [34, 13, -36, -7, -75, 5], [32, 53, 24, 10, -116, -51]]",2,2,4,[9],-116,"[0.28, 0.27, 0.1, 0.35]",-118,3,[2303],,,test,8
13,538932,mouselab,581.0,"[[89, -44, 33, -36, -1, 85], [86, -57, -83, -7, -84, 3], [-41, 5, 15, -233, 3, 117], [0, -76, 43, 18, -108, 27]]",2,0,2,[],15,"[0.22, 0.17, 0.42, 0.19]",15,2,[],,,test,9
9,11213,mouselab,3706.0,"[[-63, -47, -94, -98, -96, -48], [8, -7, 92, -62, 91, 164], [-32, 11, -57, -28, 47, -142], [69, 20, 15, 127, 134, -77]]",2,0,0,[],69,"[0.2, 0.2, 0.1, 0.5]",69,3,[],,,instruct1,0
9,13575,mouselab,1276.0,"[[-63, -47, -94, -98, -96, -48], [8, -7, 92, -62, 91, 164], [-32, 11, -57, -28, 47, -142], [69, 20, 15, 127, 134, -77]]",2,0,1,[],-7,"[0.2, 0.2, 0.1, 0.5]",-7,1,[],,,instruct1,1
9,15428,mouselab,900.0,"[[-63, -47, -94, -98, -96, -48], [8, -7, 92, -62, 91, 164], [-32, 11, -57, -28, 47, -142], [69, 20, 15, 127, 134, -77]]",2,0,2,[],15,"[0.2, 0.2, 0.1, 0.5]",15,3,[],,,instruct1,2
9,72777,mouselab,7990.0,"[[110, 5, 47, 12, -63, 140], [6, 13, -15, 27, -117, 64], [41, -60, -25, 103, -81, 127], [-15, -29, 62, -16, 9, 81]]",2,0,5,[],127,"[0.19, 0.32, 0.24, 0.25]",127,2,[],,,instruct2,0
9,76520,mouselab,2615.0,"[[-3, 90, 114, 25, 149, -142], [104, -18, 8, -98, 121, -2], [69, -16, 8, 23, 90, -25], [144, -66, 29, 173, 185, -17]]",2,0,4,[],121,"[0.23, 0.22, 0.28, 0.27]",121,1,[],,,instruct2,1
9,79156,mouselab,1578.0,"[[85, -13, -41, -149, 67, 41], [110, 101, 44, 12, -53, -26], [40, -118, -38, -108, 16, -98], [6, -18, -101, -53, -71, -24]]",2,0,0,[],110,"[0.19999999999999998, 0.25, 0.28, 0.27]",110,1,[],,,instruct2,2
9,95907,mouselab,14684.0,"[[-111, -68, -75, 81, -99, 30], [-115, -46, 59, -35, 7, -76], [123, -5, -127, -61, 37, 79], [-78, 30, 148, -45, 19, -6]]",2,22,4,"[6, 7, 9, 8, 2, 10, 11, 4, 16, 14, 22]",37,"[0.21, 0.3, 0.29, 0.2]",15,2,"[6007, 6865, 7456, 7904, 8873, 9683, 10082, 10692, 11339, 11983, 12928]",,,instruct3,0
9,105098,mouselab,5209.0,"[[-136, 94, 11, -16, 59, -93], [-83, -122, 50, 61, 70, -135], [13, 121, 36, 109, -13, 38], [-66, -11, -53, 17, -12, 5]]",2,8,1,"[12, 14, 13, 7]",121,"[0.31, 0.2, 0.28, 0.21]",113,2,"[2559, 3172, 3778, 4476]",,,instruct3,1
9,118663,mouselab,11207.0,"[[-81, -39, -3, -22, -56, 89], [89, -26, 7, -110, -14, -97], [-69, 37, -11, -6, -53, 130], [-16, -140, -61, -10, -73, -130]]",2,30,5,"[12, 13, 14, 7, 19, 1, 15, 9, 3, 21, 16, 17, 11, 5, 23]",89,"[0.18, 0.22, 0.34, 0.26]",59,0,"[1829, 2802, 3381, 3933, 4345, 4800, 5353, 5940, 6282, 6608, 6902, 7438, 8278, 8894, 9290]",,,instruct3,2
9,128569,mouselab,2957.0,"[[5, 78, -8, -15, 202, -203], [-160, -18, 34, -28, 88, -179], [-3, -81, -45, 82, -41, 52], [-96, 103, -17, 8, -75, -77]]",2,0,0,[],-3,"[0.32, 0.21, 0.22, 0.25]",-3,2,[],,,test,0
9,136768,mouselab,7134.0,"[[21, 88, 18, -84, -17, 58], [-89, 64, -114, -10, -66, 3], [59, 35, 31, -10, 17, 53], [-103, -17, 61, -1, 98, 74]]",2,18,1,"[4, 12, 6, 0, 18, 13, 14, 7, 1]",35,"[0.27, 0.24, 0.26, 0.23]",17,2,"[855, 1616, 2277, 2796, 3292, 5002, 5540, 6084, 6699]",,,test,1
9,146038,mouselab,8060.0,"[[101, -61, 102, -166, 37, 158], [-105, 14, -11, -32, 13, 58], [-99, -80, 46, 70, -38, -161], [-8, 6, 59, -121, 167, -56]]",2,24,2,"[12, 13, 14, 15, 16, 17, 9, 21, 3, 8, 20, 2]",102,"[0.28, 0.16, 0.33, 0.23]",78,0,"[1075, 1565, 1958, 2395, 3108, 3615, 4207, 4617, 5224, 6052, 6494, 7050]",,,test,2
9,151970,mouselab,2895.0,"[[169, -84, -32, -72, 31, -73], [-180, 28, -13, 56, 104, 192], [-50, 149, 21, -21, -209, 2], [-13, 105, -70, -19, -18, -144]]",2,8,1,"[12, 13, 7, 19]",-84,"[0.22, 0.41, 0.22, 0.15]",-92,0,"[822, 1303, 1930, 2374]",,,test,3
9,157606,mouselab,4507.0,"[[-60, -2, -27, -12, 6, 35], [82, -27, -94, 66, 116, 85], [-33, -32, -32, -39, 58, -36], [91, 18, 9, -90, -83, 34]]",2,16,4,"[12, 13, 14, 15, 16, 17, 10, 22]",58,"[0.16, 0.16, 0.34, 0.34]",42,2,"[865, 1291, 1712, 2135, 2549, 3053, 3554, 3919]",,,test,4
9,166846,mouselab,7807.0,"[[6, -26, -1, -35, 66, 77], [77, 93, 53, -156, -101, -32], [-8, -30, -68, 100, -25, -27], [36, 55, 2, 39, 72, 68]]",2,26,3,"[12, 13, 14, 15, 9, 21, 16, 10, 22, 17, 11, 23, 3]",-156,"[0.28, 0.17, 0.29, 0.26]",-182,1,"[1670, 2229, 2769, 3219, 3839, 4212, 4590, 5106, 5487, 5771, 6272, 6754, 7418]",,,test,5
9,177138,mouselab,8941.0,"[[-181, -41, 6, -11, 1, -32], [-48, 30, 15, 60, 98, 44], [-105, 35, -37, -73, -92, 56], [15, -130, -47, 72, -85, 26]]",2,30,4,"[6, 7, 1, 19, 8, 9, 2, 20, 13, 15, 3, 16, 10, 11, 17]",98,"[0.18, 0.29, 0.23, 0.3]",68,1,"[1322, 1754, 2268, 2655, 3061, 3657, 4117, 4410, 4999, 5444, 5998, 6892, 7229, 7839, 8161]",,,test,6
9,182032,mouselab,3997.0,"[[-53, -41, -95, -99, 15, -86], [-57, 57, 124, 21, -102, -31], [-94, 12, 125, -115, -16, 136], [101, 74, 66, 17, -87, -82]]",2,10,2,"[6, 7, 1, 8, 9]",66,"[0.1899999999999999, 0.44, 0.2, 0.17]",56,3,"[1229, 1715, 2217, 2679, 3102]",,,test,7
9,189073,mouselab,6066.0,"[[107, 94, -115, 65, 77, -14], [-60, -70, -48, 7, -39, -59], [2, -113, -137, -19, -87, 10], [-89, 46, 13, 109, 86, -54]]",2,16,0,"[6, 0, 1, 2, 3, 4, 5, 7]",-60,"[0.31, 0.26, 0.23, 0.2]",-76,1,"[1525, 2201, 2622, 3139, 3629, 3983, 4377, 5010]",,,test,8
9,198506,mouselab,8499.0,"[[42, -24, 101, -100, 58, -27], [-5, -156, 35, -50, -12, -147], [53, -58, 7, -106, 64, 28], [-111, 76, 48, -108, 91, 15]]",2,20,4,"[12, 13, 6, 14, 15, 16, 17, 10, 22, 18]",64,"[0.16999999999999998, 0.25, 0.34, 0.24]",44,2,"[1391, 2019, 3338, 4412, 4717, 5084, 5485, 6317, 6647, 7502]",,,test,9
3,131754,mouselab,104043.0,"[[-81, -173, 144, -186, 3, 362], [44, -19, -252, 46, -13, -68], [147, 85, -115, -224, 77, 53], [-105, -148, 176, 245, -11, 10]]",2,0,0,[],-105,"[0.2, 0.2, 0.1, 0.5]",-105,3,[],,,instruct1,0
3,145863,mouselab,11556.0,"[[-81, -173, 144, -186, 3, 362], [44, -19, -252, 46, -13, -68], [147, 85, -115, -224, 77, 53], [-105, -148, 176, 245, -11, 10]]",2,0,1,[],-148,"[0.2, 0.2, 0.1, 0.5]",-148,3,[],,,instruct1,1
3,151940,mouselab,4052.0,"[[-81, -173, 144, -186, 3, 362], [44, -19, -252, 46, -13, -68], [147, 85, -115, -224, 77, 53], [-105, -148, 176, 245, -11, 10]]",2,0,2,[],176,"[0.2, 0.2, 0.1, 0.5]",176,3,[],,,instruct1,2
3,285105,mouselab,15239.0,"[[-96, 62, -70, -28, 111, -27], [-5, 89, -223, -122, 207, 182], [13, 22, -69, 126, 196, 146], [-75, -2, -348, -92, 273, 254]]",2,0,4,[],196,"[0.21000000000000002, 0.43, 0.18, 0.18]",196,2,[],,,instruct2,0
3,300389,mouselab,12361.0,"[[405, 357, -7, 16, -235, -139], [302, 40, 133, 62, 268, -9], [220, 194, 57, -332, -264, -111], [308, -114, 233, -92, -243, -24]]",2,0,0,[],308,"[0.16, 0.33, 0.25, 0.26]",308,3,[],,,instruct2,1
3,322620,mouselab,15438.0,"[[84, 100, -164, -83, -87, -191], [143, 193, -6, -213, -7, -176], [89, 224, -26, 177, -160, 99], [87, 273, 0, 219, -29, -135]]",2,0,1,[],100,"[0.19, 0.27, 0.25, 0.29]",100,0,[],,,instruct2,2
3,372970,mouselab,39408.0,"[[-270, -54, 203, -235, 235, -126], [4, 90, -32, -307, 48, -226], [204, -39, -6, 103, 235, -107], [-105, 170, -211, 242, 74, -62]]",2,6,0,"[12, 13, 14]",-105,"[0.26, 0.23, 0.38, 0.13]",-111,3,"[33081, 33625, 34278]",,,instruct3,0
3,392406,mouselab,13608.0,"[[360, 11, -93, 118, 356, -104], [-135, -30, -178, 60, 32, 13], [53, 178, -32, -18, 61, -320], [-88, -246, 41, -132, -207, -232]]",2,6,1,"[12, 13, 14]",11,"[0.22, 0.21, 0.32, 0.25]",5,0,"[9380, 9926, 10547]",,,instruct3,1
3,411892,mouselab,14693.0,"[[156, -153, 182, -69, -192, 245], [208, -21, 51, 112, -85, -101], [75, -40, -103, -28, -132, 84], [-162, -329, -37, 73, -29, -145]]",2,6,0,"[6, 7, 8]",-162,"[0.2, 0.49, 0.17, 0.14]",-168,3,"[9194, 9777, 10405]",,,instruct3,2
3,448343,mouselab,19390.0,"[[-334, 33, 30, -196, -69, 232], [90, 214, 207, -24, 109, -197], [-233, 192, -114, 49, -200, 75], [-133, 3, -132, -109, 6, -25]]",2,6,1,"[0, 1, 2]",33,"[0.33, 0.15, 0.32, 0.2]",27,0,"[9028, 9715, 10635]",,,test,0
3,463621,mouselab,10311.0,"[[0, 15, 35, 284, -104, -150], [86, -70, 56, -66, 172, -371], [45, 263, -25, -19, 56, -341], [-20, 35, 151, -40, -189, 95]]",2,6,2,"[18, 19, 20]",35,"[0.24, 0.26, 0.23, 0.27]",29,0,"[5796, 6564, 7161]",,,test,1
3,478096,mouselab,9620.0,"[[259, 150, 184, 160, -210, -102], [-159, 222, 51, -204, 121, 33], [-106, 10, -11, 57, -52, -58], [32, -82, -282, -80, -69, 227]]",2,6,0,"[18, 19, 20]",-159,"[0.32, 0.14, 0.17, 0.37]",-165,1,"[5136, 5670, 6248]",,,test,2
3,491369,mouselab,9524.0,"[[-133, 179, -175, 65, 153, -255], [291, -76, -7, 76, -310, 62], [-160, -76, 115, -143, 181, -140], [-150, -28, 60, 215, -266, 74]]",2,6,2,"[18, 19, 20]",60,"[0.24, 0.19, 0.2, 0.37]",54,3,"[5170, 5758, 6663]",,,test,3
3,512653,mouselab,17932.0,"[[-3, 16, -143, 147, 262, -17], [280, -90, -231, 12, -27, 129], [29, -72, -5, 26, 45, 104], [-101, -185, -110, 46, -400, 73]]",2,12,5,"[18, 19, 20, 21, 22, 23]",73,"[0.31, 0.22, 0.13, 0.34]",61,3,"[3863, 4585, 5298, 13614, 14499, 15342]",,,test,4
3,529556,mouselab,12899.0,"[[-353, 81, 97, 334, -263, 82], [65, 50, 19, 132, -63, -135], [66, -84, -11, 3, 43, -106], [124, -84, -160, 32, -57, -81]]",2,8,3,"[6, 7, 8, 9]",132,"[0.26, 0.3, 0.19, 0.25]",124,1,"[4228, 5537, 7535, 9741]",,,test,5
3,541132,mouselab,8805.0,"[[401, -139, -96, -106, 152, -65], [-167, -139, 291, 60, 247, 43], [26, 121, -96, 89, -151, 146], [144, 202, -58, -26, 41, 29]]",2,4,1,"[12, 13]",121,"[0.26, 0.17, 0.3, 0.27]",117,2,"[3956, 5270]",,,test,6
3,552729,mouselab,8644.0,"[[-327, 115, 75, 127, -37, -32], [-326, 97, 85, 38, 137, -173], [-29, -92, -82, -68, 52, 227], [29, 87, -210, -185, -67, -213]]",2,4,1,"[0, 1]",87,"[0.28, 0.22, 0.24, 0.26]",83,3,"[5455, 6566]",,,test,7
3,562437,mouselab,6525.0,"[[-56, -37, 203, -265, 129, -14], [-99, 156, 70, -219, 267, 44], [-45, -10, -125, 191, 70, 172], [-204, 153, -52, -228, -20, -56]]",2,4,1,"[18, 19]",-10,"[0.21, 0.28, 0.23, 0.28]",-14,2,"[4255, 5070]",,,test,8
3,569717,mouselab,4351.0,"[[180, -208, -56, -146, 37, -74], [-4, 87, 117, -38, -110, -101], [361, -212, -169, 78, 368, 145], [138, -43, 114, 128, 83, -107]]",2,2,0,[12],361,"[0.17, 0.17, 0.37, 0.29]",359,2,[2061],,,test,9
15,11150,mouselab,4939.0,"[[224, 18, -50, 193, 101, -101], [218, -93, -131, -23, -160, 194], [40, -170, 93, 230, 380, 14], [85, 3, 215, 153, 55, -131]]",2,0,0,[],85,"[0.2, 0.2, 0.1, 0.5]",85,3,[],,,instruct1,0
15,16789,mouselab,3025.0,"[[224, 18, -50, 193, 101, -101], [218, -93, -131, -23, -160, 194], [40, -170, 93, 230, 380, 14], [85, 3, 215, 153, 55, -131]]",2,0,1,[],3,"[0.2, 0.2, 0.1, 0.5]",3,3,[],,,instruct1,1
15,20353,mouselab,2201.0,"[[224, 18, -50, 193, 101, -101], [218, -93, -131, -23, -160, 194], [40, -170, 93, 230, 380, 14], [85, 3, 215, 153, 55, -131]]",2,0,2,[],215,"[0.2, 0.2, 0.1, 0.5]",215,3,[],,,instruct1,2
15,151575,mouselab,20617.0,"[[173, 210, -90, 151, 92, 71], [118, 302, 161, 269, -2, -20], [102, 394, 180, 324, 128, 67], [-36, 55, -10, 20, 13, 12]]",2,0,3,[],324,"[0.19, 0.36, 0.26, 0.19]",324,2,[],,,instruct2,0
15,170897,mouselab,14332.0,"[[-129, 273, 213, 100, -287, -110], [-11, 234, 2, 187, 71, 28], [100, 191, -110, 138, 6, -53], [44, 205, 99, 102, 11, 141]]",2,0,1,[],191,"[0.23999999999999977, 0.32, 0.16, 0.28]",191,2,[],,,instruct2,1
15,184857,mouselab,11734.0,"[[18, -130, 186, -21, -10, 224], [197, 191, 163, -212, 47, 267], [165, 2, -54, 118, 28, 215], [-84, 129, 126, 241, -81, 266]]",2,0,5,[],215,"[0.26, 0.27, 0.22, 0.25]",215,2,[],,,instruct2,2
15,214055,mouselab,26173.0,"[[8, -57, 215, -4, 196, 19], [146, 53, -126, 71, 18, -168], [-158, -198, 55, 41, 250, -132], [17, -276, -71, -168, 232, 206]]",2,6,4,"[7, 15, 4]",196,"[0.23, 0.2, 0.28, 0.29]",190,0,"[8315, 9208, 10006]",,,instruct3,0
15,232191,mouselab,14970.0,"[[-256, -177, -191, 19, -136, -2], [-79, -274, 90, -98, -182, -36], [-29, 53, -137, -106, 9, -16], [-138, 276, -28, -59, 150, 28]]",2,10,5,"[7, 15, 4, 20, 17]",-2,"[0.27, 0.32, 0.23, 0.18]",-12,0,"[3504, 4261, 5375, 9490, 13192]",,,instruct3,1
15,241982,mouselab,7275.0,"[[159, -149, 80, 259, 163, 182], [130, 171, -85, 18, -334, 67], [142, 182, -1, -79, -43, 51], [49, -78, -158, -52, 99, -62]]",2,10,3,"[6, 14, 3, 15, 22]",-52,"[0.24000000000000002, 0.21, 0.2, 0.35]",-62,3,"[1603, 2220, 3005, 4598, 5584]",,,instruct3,2
15,253985,mouselab,5576.0,"[[-2, 195, 1, -60, 188, 216], [24, -50, 94, 98, 175, 82], [-164, -19, 77, -189, 251, -76], [255, -162, 84, -4, -79, 360]]",2,10,4,"[1, 13, 15, 3, 10]",175,"[0.31, 0.21, 0.27, 0.21]",165,1,"[2253, 2875, 3419, 3857, 4522]",,,test,0
15,258939,mouselab,2865.0,"[[401, -139, -96, -106, 152, -65], [-167, -139, 291, 60, 247, 43], [26, 121, -96, 89, -151, 146], [144, 202, -58, -26, 41, 29]]",2,4,2,"[8, 6]",-96,"[0.26, 0.17, 0.3, 0.27]",-100,0,"[956, 1537]",,,test,1
15,265656,mouselab,5003.0,"[[-38, 60, -33, 24, -127, -190], [185, -396, 54, -56, 275, -211], [-140, 91, -366, -5, 230, 39], [184, 164, 145, 174, 53, 162]]",2,12,2,"[4, 15, 8, 7, 12, 20]",145,"[0.28, 0.23, 0.2, 0.29]",133,3,"[995, 1684, 2201, 2612, 3092, 3762]",,,test,2
15,270625,mouselab,3491.0,"[[137, 87, 82, 48, 92, 151], [-98, -349, 178, 23, 265, 81], [233, 206, -66, 15, 191, -33], [-53, 17, 260, 13, -56, 94]]",2,6,4,"[4, 17, 16]",191,"[0.0699999999999999, 0.27, 0.49, 0.17]",185,2,"[986, 1650, 2406]",,,test,3
15,281138,mouselab,8877.0,"[[-155, -142, 141, -37, -101, -211], [-113, 77, 49, 66, 116, -174], [-50, -165, -66, -22, 285, -132], [-55, 297, -184, 167, 56, 195]]",2,16,2,"[4, 9, 8, 13, 15, 14, 6, 12]",-184,"[0.25, 0.26, 0.24, 0.25]",-200,3,"[1002, 1518, 2107, 3592, 4414, 5418, 6897, 7472]",,,test,4
15,285389,mouselab,2575.0,"[[371, -29, 225, -90, 45, 254], [-38, -251, 77, 213, 176, 183], [141, 124, -47, -127, -87, 30], [25, -93, -328, 60, -120, -135]]",2,4,4,"[10, 17]",-87,"[0.24000000000000002, 0.25, 0.21, 0.3]",-91,2,"[976, 1436]",,,test,5
15,289569,mouselab,2396.0,"[[115, -166, 31, -292, 301, 278], [24, 256, 47, -265, 164, 10], [-99, 39, -76, 266, -73, -61], [4, 0, 207, -223, -168, 130]]",2,4,1,"[7, 8]",-166,"[0.17, 0.33, 0.27, 0.23]",-170,0,"[815, 1224]",,,test,6
15,294805,mouselab,3559.0,"[[102, -223, 50, -105, -111, -253], [68, 198, -242, -282, 117, -11], [307, -182, -7, 11, 174, -102], [198, -94, -131, -240, -48, 1]]",2,12,4,"[19, 13, 8, 9, 16, 10]",174,"[0.22999999999999998, 0.18, 0.21, 0.38]",162,2,"[714, 1097, 1502, 1911, 2335, 2921]",,,test,7
15,306889,mouselab,10494.0,"[[-193, -148, 64, -190, -40, 178], [-267, -149, -160, -34, 35, -63], [144, 148, 209, -103, 64, 0], [-5, 22, 143, 111, 250, 249]]",2,12,2,"[6, 8, 14, 21, 9, 16]",209,"[0.23, 0.29, 0.3, 0.18]",197,2,"[1247, 1817, 2402, 3117, 3987, 7694]",,,test,8
15,312726,mouselab,4226.0,"[[360, 11, -93, 118, 356, -104], [-135, -30, -178, 60, 32, 13], [53, 178, -32, -18, 61, -320], [-88, -246, 41, -132, -207, -232]]",2,2,1,[13],-30,"[0.22, 0.21, 0.32, 0.25]",-32,1,[2253],,,test,9
10,90856,mouselab,55182.0,"[[91, -44, 21, 70, 76, 34], [17, -42, -70, -63, -41, -168], [68, 54, -36, -107, 3, 13], [67, -95, -103, -90, -5, -49]]",2,0,0,[],67,"[0.2, 0.2, 0.1, 0.5]",67,3,[],,,instruct1,0
10,140687,mouselab,35225.0,"[[91, -44, 21, 70, 76, 34], [17, -42, -70, -63, -41, -168], [68, 54, -36, -107, 3, 13], [67, -95, -103, -90, -5, -49]]",2,0,1,[],-95,"[0.2, 0.2, 0.1, 0.5]",-95,3,[],,,instruct1,1
10,167558,mouselab,23223.0,"[[91, -44, 21, 70, 76, 34], [17, -42, -70, -63, -41, -168], [68, 54, -36, -107, 3, 13], [67, -95, -103, -90, -5, -49]]",2,0,2,[],21,"[0.2, 0.2, 0.1, 0.5]",21,0,[],,,instruct1,2
10,338151,mouselab,10694.0,"[[-135, 116, 29, 42, -2, 82], [61, 95, -56, 4, 46, -216], [12, 84, -86, 75, 74, 45], [-10, 171, -68, -67, 20, 159]]",2,0,1,[],95,"[0.04, 0.45, 0.04, 0.47]",95,1,[],,,instruct2,0
10,351318,mouselab,9104.0,"[[-70, -4, -18, 195, 215, -109], [13, -128, -48, 113, 128, -51], [55, -70, -48, 82, 110, -9], [80, 74, 126, 94, 157, 0]]",2,0,4,[],110,"[0.06999999999999999, 0.42, 0.39, 0.12]",110,2,[],,,instruct2,1
10,365485,mouselab,12024.0,"[[-7, -110, 149, -35, 5, 165], [-39, -62, -136, -122, 31, 61], [-62, -74, -55, -63, -8, 27], [-56, -2, -153, -43, -98, 13]]",2,0,5,[],13,"[0.17, 0.39, 0.02, 0.42]",13,3,[],,,instruct2,2
10,474581,mouselab,99273.0,"[[63, -6, -89, 4, 22, -29], [-119, -78, -100, -83, 50, -29], [9, -11, 79, 114, -30, 63], [-2, -86, 75, -27, -44, -74]]",2,30,1,"[7, 8, 9, 10, 11, 16, 22, 4, 12, 6, 0, 18, 14, 5, 17]",-6,"[0.08, 0.55, 0.17, 0.2]",-36,0,"[12159, 13255, 14023, 14999, 17927, 19351, 20071, 21183, 32398, 33609, 35593, 36849, 72327, 78703, 81071]",,,instruct3,0
10,515955,mouselab,35927.0,"[[41, -1, 34, 28, 120, -31], [22, -75, -26, 67, -3, -79], [36, -39, -32, -18, -1, -68], [-13, -122, -140, -36, -26, 134]]",2,42,4,"[18, 19, 20, 21, 22, 23, 17, 11, 5, 1, 7, 13, 0, 6, 12, 3, 10, 16, 14, 8, 2]",-3,"[0.2, 0.03, 0.24, 0.53]",-45,1,"[5127, 5631, 6183, 6767, 7359, 7999, 10247, 10767, 11191, 14486, 15862, 17230, 19454, 20166, 20975, 25374, 26774, 27718, 29966, 30990, 31661]",,,instruct3,1
10,531381,mouselab,9378.0,"[[-20, 36, 41, 36, -10, -74], [93, -124, 101, 100, -22, -27], [14, -74, 208, -53, 111, 10], [28, 0, 8, -33, -9, 71]]",2,8,0,"[6, 18, 10, 23]",93,"[0.1999999999999999, 0.4, 0.01, 0.39]",85,1,"[2607, 3255, 4946, 5809]",,,instruct3,2
10,560388,mouselab,18366.0,"[[16, -118, 105, 39, 58, -144], [-18, 132, -121, -146, 120, 54], [11, -100, -63, 21, -145, 36], [-147, 52, 3, -38, 147, 2]]",2,24,3,"[12, 14, 16, 17, 13, 15, 0, 1, 2, 3, 5, 4]",39,"[0.34, 0.04, 0.35, 0.27]",15,0,"[3533, 4533, 5558, 6541, 7493, 8117, 9861, 10797, 11629, 12269, 13741, 14565]",,,test,0
10,575714,mouselab,7664.0,"[[43, 6, 10, 64, 4, 0], [-88, 30, -65, -30, -84, -10], [6, 51, -15, 10, -22, -26], [4, -118, 14, -27, 46, 28]]",2,12,4,"[18, 19, 20, 21, 22, 23]",46,"[0.02, 0.41, 0.02, 0.55]",34,3,"[2223, 2807, 3575, 4087, 4671, 5287]",,,test,1
10,586213,mouselab,7643.0,"[[-80, -107, -38, 64, 33, -40], [-127, -18, -7, -15, -49, 179], [-51, -67, 71, 53, -88, 70], [-9, 79, -77, -156, 25, -28]]",2,12,5,"[6, 7, 8, 9, 10, 11]",179,"[0.44, 0.5, 0.04, 0.02]",167,1,"[1807, 3551, 4087, 4807, 5450, 6354]",,,test,2
10,598845,mouselab,6176.0,"[[-128, -39, 90, -126, -18, 67], [-61, 13, -30, 35, -112, -15], [-107, 131, 90, -117, 73, 40], [-13, 33, -51, -19, 197, 39]]",2,12,4,"[18, 19, 20, 21, 22, 23]",197,"[0.01, 0.02, 0.04, 0.93]",185,3,"[1711, 2303, 2807, 3319, 3823, 4391]",,,test,3
10,616340,mouselab,8440.0,"[[-14, 45, -72, -107, -35, 117], [-57, 68, -3, -15, 45, -48], [-59, -9, 99, -49, 176, -41], [-6, -87, 97, -21, 37, 10]]",2,14,4,"[12, 18, 13, 20, 15, 16, 17]",37,"[0.1, 0.05, 0.47, 0.38]",23,3,"[2047, 2871, 3527, 4351, 6463, 6951, 7511]",,,test,4
10,628459,mouselab,8656.0,"[[5, -44, 62, 1, 18, -53], [-28, -74, -7, 28, 101, -20], [23, -81, 117, 94, 30, 38], [48, -87, 57, 54, -32, -4]]",2,10,2,"[12, 6, 0, 13, 14]",62,"[0.32, 0.32, 0.35, 0.01]",52,0,"[2399, 3503, 4055, 5879, 6535]",,,test,5
10,644277,mouselab,11440.0,"[[70, 21, 78, 14, -68, -76], [-35, -191, -49, -5, -73, 26], [-25, -1, 82, 80, 211, 12], [-62, -67, 105, 21, -66, -50]]",2,18,2,"[0, 1, 2, 3, 4, 5, 8, 14, 20]",78,"[0.71, 0.27, 0.01, 0.01]",60,0,"[1672, 2623, 4655, 5431, 6487, 7183, 9367, 9815, 10455]",,,test,6
10,655428,mouselab,5937.0,"[[-12, 27, -15, -26, 3, -91], [-155, 40, -5, -90, -2, 83], [-16, -4, 45, 79, 25, -63], [15, -59, -71, 13, -33, -110]]",2,12,5,"[6, 7, 8, 9, 10, 11]",83,"[0.07999999999999999, 0.61, 0.16, 0.15]",71,1,"[1495, 2103, 2591, 3071, 3519, 3991]",,,test,7
10,664492,mouselab,5920.0,"[[-77, -72, 6, 179, 6, 59], [63, -23, -269, 128, 72, -38], [-18, -3, 89, 43, 129, 84], [91, 87, 34, 135, -49, 152]]",2,10,3,"[0, 1, 2, 3, 4]",43,"[0.56, 0.01, 0.4, 0.03]",33,2,"[1335, 2703, 3311, 3815, 4559]",,,test,8
10,681539,mouselab,12408.0,"[[-16, -42, 14, -95, 55, -63], [-97, 29, -101, -103, 132, 103], [-68, -66, -21, -1, 10, 13], [24, 132, -88, 11, -45, -59]]",2,24,4,"[12, 13, 14, 15, 16, 17, 11, 10, 9, 8, 7, 6]",132,"[0.01, 0.39, 0.42, 0.18]",108,1,"[1407, 1943, 2495, 3023, 3511, 4071, 5159, 5975, 6607, 7191, 7751, 8519]",,,test,9
5,73125,mouselab,60188.0,"[[105, 72, -60, -13, 111, -61], [8, -29, -36, -107, 107, -54], [18, -12, 135, -50, 15, -38], [92, 1, -6, -114, 41, -42]]",2,0,0,[],92,"[0.2, 0.2, 0.1, 0.5]",92,3,[],,,instruct1,0
5,86532,mouselab,6465.0,"[[105, 72, -60, -13, 111, -61], [8, -29, -36, -107, 107, -54], [18, -12, 135, -50, 15, -38], [92, 1, -6, -114, 41, -42]]",2,0,1,[],-12,"[0.2, 0.2, 0.1, 0.5]",-12,2,[],,,instruct1,1
5,95284,mouselab,5248.0,"[[105, 72, -60, -13, 111, -61], [8, -29, -36, -107, 107, -54], [18, -12, 135, -50, 15, -38], [92, 1, -6, -114, 41, -42]]",2,0,2,[],-36,"[0.2, 0.2, 0.1, 0.5]",-36,1,[],,,instruct1,2
5,163876,mouselab,11776.0,"[[-57, 66, 3, -70, 114, 97], [-103, -29, -32, 108, 119, -15], [61, 185, -31, 5, 211, 46], [103, -58, -5, -69, 123, 23]]",2,0,4,[],114,"[0.22, 0.32, 0.28, 0.18]",114,0,[],,,instruct2,0
5,176853,mouselab,10481.0,"[[21, -68, 39, 16, -13, 29], [-53, -2, 119, 93, 89, 41], [-23, 73, 146, -43, 100, 113], [166, 84, 201, 107, -86, -29]]",2,0,2,[],146,"[0.23, 0.32, 0.17, 0.28]",146,2,[],,,instruct2,1
5,186764,mouselab,7537.0,"[[1, 32, 19, -36, -29, -103], [5, 17, -103, -183, -53, -189], [-11, 86, -48, -54, -114, 50], [-8, 75, -15, -133, 45, -174]]",2,0,1,[],32,"[0.26, 0.28, 0.2, 0.26]",32,0,[],,,instruct2,2
5,226572,mouselab,37112.0,"[[-148, 9, -15, -32, -27, -91], [170, -28, -148, 118, -33, -10], [-18, 76, 0, -54, 54, -19], [33, 35, -24, 92, 29, -93]]",2,8,1,"[1, 7, 2, 3]",35,"[0.3, 0.27, 0.16, 0.27]",27,3,"[21688, 24183, 26711, 29615]",,,instruct3,0
5,245468,mouselab,15616.0,"[[-181, -41, 6, -11, 1, -32], [-48, 30, 15, 60, 98, 44], [-105, 35, -37, -73, -92, 56], [15, -130, -47, 72, -85, 26]]",2,6,5,"[23, 11, 22]",26,"[0.18, 0.29, 0.23, 0.3]",20,3,"[6679, 9383, 12127]",,,instruct3,1
5,259196,mouselab,10280.0,"[[27, 107, -64, -19, 19, 57], [-136, -151, -4, 0, -4, -111], [-86, -80, 24, -59, 95, -90], [-77, -87, -6, -124, 36, -12]]",2,6,4,"[4, 22, 3]",19,"[0.38, 0.22, 0.13, 0.27]",13,0,"[4519, 6631, 9431]",,,instruct3,2
5,274885,mouselab,9183.0,"[[21, 88, 18, -84, -17, 58], [-89, 64, -114, -10, -66, 3], [59, 35, 31, -10, 17, 53], [-103, -17, 61, -1, 98, 74]]",2,4,2,"[2, 14]",-114,"[0.27, 0.24, 0.26, 0.23]",-118,1,"[4198, 7407]",,,test,0
5,286997,mouselab,10240.0,"[[18, 24, -170, 52, -1, -42], [39, -23, -17, 62, -169, -63], [-84, 19, 99, 73, 166, 55], [46, 202, -185, 19, -26, 62]]",2,4,1,"[13, 19]",202,"[0.21, 0.2, 0.32, 0.27]",198,3,"[3506, 6591]",,,test,1
5,306949,mouselab,16368.0,"[[78, 70, -45, -64, -94, 36], [-14, -138, 51, 142, -58, -20], [-106, -221, -23, -34, 36, -37], [29, -28, 122, 77, 40, -63]]",2,12,0,"[3, 4, 1, 13, 2, 0]",-14,"[0.27999999999999997, 0.22, 0.26, 0.24]",-26,1,"[4551, 7423, 9007, 10880, 14311, 15232]",,,test,2
5,319885,mouselab,10440.0,"[[-95, 157, 99, -83, -42, -46], [-176, -86, -15, -78, -157, 95], [18, 27, -43, 19, -3, -40], [33, -3, -26, -65, 60, 33]]",2,8,5,"[6, 9, 11, 23]",33,"[0.17, 0.41, 0.18, 0.24]",25,3,"[4959, 6087, 7095, 9383]",,,test,3
5,336261,mouselab,14128.0,"[[2, 256, -76, 0, -40, -22], [-63, 30, 65, -93, 4, -62], [-50, -39, -104, -89, -78, 52], [160, 50, 39, -11, -5, 25]]",2,14,1,"[19, 13, 20, 14, 21, 18, 12]",50,"[0.16, 0.21, 0.29, 0.34]",36,3,"[3079, 4879, 6487, 7119, 8199, 9775, 10735]",,,test,4
5,348260,mouselab,9512.0,"[[89, -44, 33, -36, -1, 85], [86, -57, -83, -7, -84, 3], [-41, 5, 15, -233, 3, 117], [0, -76, 43, 18, -108, 27]]",2,8,5,"[13, 15, 17, 5]",117,"[0.22, 0.17, 0.42, 0.19]",109,2,"[3103, 5095, 6263, 9015]",,,test,5
5,361021,mouselab,9104.0,"[[169, -84, -32, -72, 31, -73], [-180, 28, -13, 56, 104, 192], [-50, 149, 21, -21, -209, 2], [-13, 105, -70, -19, -18, -144]]",2,10,5,"[6, 8, 11, 17, 5]",-73,"[0.22, 0.41, 0.22, 0.15]",-83,0,"[2864, 3752, 4800, 7360, 8008]",,,test,6
5,376197,mouselab,11671.0,"[[168, -58, 51, 111, -26, 69], [88, 5, 77, 10, -24, -80], [-71, -11, -134, -113, -95, -26], [51, -25, 217, -109, -150, 97]]",2,16,0,"[12, 14, 16, 17, 15, 13, 18, 0]",168,"[0.26, 0.15, 0.3, 0.29]",152,0,"[2791, 3663, 4415, 5079, 5687, 6208, 9215, 10735]",,,test,7
5,395516,mouselab,16952.0,"[[-114, 27, 21, -66, 53, -138], [59, 64, -161, -122, 1, 113], [-24, -79, 39, 189, -88, 43], [-1, 99, 82, -35, 26, 13]]",2,18,2,"[12, 16, 4, 10, 0, 1, 13, 2, 14]",82,"[0.28, 0.23, 0.29, 0.2]",64,3,"[2815, 3686, 5487, 8407, 10654, 11999, 13751, 14767, 15583]",,,test,8
5,405012,mouselab,7624.0,"[[-111, -68, -75, 81, -99, 30], [-115, -46, 59, -35, 7, -76], [123, -5, -127, -61, 37, 79], [-78, 30, 148, -45, 19, -6]]",2,10,4,"[7, 9, 11, 16, 10]",37,"[0.21, 0.3, 0.29, 0.2]",27,2,"[2247, 3111, 3863, 5007, 6447]",,,test,9
7,18548,mouselab,10740.0,"[[93, -48, -56, 64, 29, 8], [35, -57, 46, 113, 72, 97], [107, -126, -70, -22, -90, 21], [-54, 83, -106, -70, -45, -7]]",2,0,0,[],-54,"[0.2, 0.2, 0.1, 0.5]",-54,3,[],,,instruct1,0
7,22293,mouselab,2181.0,"[[93, -48, -56, 64, 29, 8], [35, -57, 46, 113, 72, 97], [107, -126, -70, -22, -90, 21], [-54, 83, -106, -70, -45, -7]]",2,0,1,[],-48,"[0.2, 0.2, 0.1, 0.5]",-48,0,[],,,instruct1,1
7,24666,mouselab,1128.0,"[[93, -48, -56, 64, 29, 8], [35, -57, 46, 113, 72, 97], [107, -126, -70, -22, -90, 21], [-54, 83, -106, -70, -45, -7]]",2,0,2,[],-106,"[0.2, 0.2, 0.1, 0.5]",-106,3,[],,,instruct1,2
7,75049,mouselab,6502.0,"[[-37, 94, -82, 130, 84, 86], [-116, 16, -25, 49, -68, -51], [74, -101, 40, 112, -116, 84], [-65, 154, 76, 172, 114, -89]]",2,0,3,[],172,"[0.01, 0.27, 0.02, 0.7]",172,3,[],,,instruct2,0
7,80117,mouselab,3723.0,"[[36, 124, -14, 153, -20, -116], [13, -58, 30, 72, -56, 36], [-12, 59, -37, 82, 48, -121], [78, -32, -40, 215, 200, 63]]",2,0,3,[],153,"[0.91, 0.01, 0.03, 0.05]",153,0,[],,,instruct2,1
7,85272,mouselab,4203.0,"[[110, 101, -112, -12, 44, 59], [239, 24, -9, 2, -107, 203], [156, -9, 121, -8, 4, 54], [109, 80, -17, -94, 47, -102]]",2,0,0,[],110,"[0.85, 0.02, 0.11, 0.02]",110,0,[],,,instruct2,2
7,93382,mouselab,4423.0,"[[-1, 11, -81, -4, 90, -142], [104, 56, -130, 165, -59, 0], [152, 24, 21, 22, -30, 28], [-249, 79, 17, -34, 90, 72]]",2,0,1,[],11,"[0.96, 0.01, 0.02, 0.01]",11,0,[],,,instruct3,0
7,97867,mouselab,1236.0,"[[81, 16, -68, -23, 56, -182], [-2, -61, 9, 147, 78, -18], [-14, -90, -87, 107, 188, -135], [13, 12, -104, 127, -1, 136]]",2,0,2,[],-87,"[0.07, 0.3, 0.48, 0.15]",-87,2,[],,,instruct3,1
7,102234,mouselab,2011.0,"[[-3, -50, 25, -11, 50, -58], [51, -19, 93, 15, -27, -19], [-30, -53, -146, -106, -87, 89], [99, 54, -6, -54, -31, 8]]",2,0,2,[],-146,"[0.04, 0.01, 0.4, 0.55]",-146,2,[],,,instruct3,2
7,106626,mouselab,729.0,"[[-77, 110, -62, 21, 40, -30], [66, -102, 76, -55, -20, -101], [11, 84, 26, -51, 43, 20], [70, 19, 19, 166, -46, 49]]",2,0,3,[],-55,"[0.03, 0.5, 0.05, 0.42]",-55,1,[],,,test,0
7,108289,mouselab,745.0,"[[-174, -28, 70, -46, 25, 48], [25, 54, -45, -47, 27, -92], [-63, -56, -63, 122, 11, -230], [22, 90, 31, 17, -154, 78]]",2,0,1,[],54,"[0.25, 0.59, 0.09, 0.07]",54,1,[],,,test,1
7,110722,mouselab,584.0,"[[168, -49, 128, -56, -15, -53], [138, -186, 88, -39, -132, -62], [15, -31, 89, -41, 18, -44], [-4, 64, -129, -18, 169, -83]]",2,0,5,[],-44,"[0.11, 0.74, 0.14, 0.01]",-44,2,[],,,test,2
7,112416,mouselab,622.0,"[[-35, 38, 28, -24, 73, 69], [-162, 45, 70, 24, -79, 27], [127, 130, -93, -33, -20, -9], [-42, -50, -21, 98, 158, 37]]",2,0,0,[],-35,"[0.79, 0.16, 0.04, 0.01]",-35,0,[],,,test,3
7,116477,mouselab,661.0,"[[100, -23, -23, 34, -135, 41], [96, -59, 48, -128, 119, 156], [47, 139, -136, -25, 110, -57], [-13, -17, 58, 147, 32, -47]]",2,0,2,[],-136,"[0.33, 0.26, 0.36, 0.05]",-136,2,[],,,test,4
7,120168,mouselab,1233.0,"[[-13, -27, 28, -101, 82, 144], [30, 63, -54, -193, -9, -4], [-19, -88, 62, -2, -139, -38], [-52, 21, -150, 8, 143, -92]]",2,0,3,[],8,"[0.01, 0.06, 0.55, 0.38]",8,3,[],,,test,5
7,121791,mouselab,628.0,"[[-76, -6, -27, -29, -131, -11], [80, 113, -24, -84, -97, 59], [-15, -5, -33, -11, -18, 23], [-60, 83, 202, 36, 27, -19]]",2,0,4,[],-97,"[0.18, 0.52, 0.29, 0.01]",-97,1,[],,,test,6
7,123532,mouselab,638.0,"[[-22, -63, 123, 75, 31, 24], [-129, 108, 124, 32, -110, 42], [83, -137, -3, -81, 77, -22], [24, -135, 107, -42, 39, -78]]",2,0,1,[],-135,"[0.06000000000000001, 0.28, 0.25, 0.41]",-135,3,[],,,test,7
7,125103,mouselab,542.0,"[[19, 73, -36, 18, 113, 11], [-166, -49, -8, 21, 121, -102], [-69, -72, 39, -43, -30, -164], [56, 32, -137, 102, -68, 18]]",2,0,2,[],-36,"[0.24, 0.43, 0.14, 0.19]",-36,0,[],,,test,8
7,127282,mouselab,639.0,"[[64, 100, -77, 1, -31, 22], [-109, -58, 133, -29, -12, 73], [27, -57, 107, 18, -2, -10], [81, 41, 5, 10, -60, 203]]",2,0,2,[],5,"[0.49, 0.24, 0.02, 0.25]",5,3,[],,,test,9
14,48150,mouselab,41448.0,"[[-148, 9, -15, -32, -27, -91], [170, -28, -148, 118, -33, -10], [-18, 76, 0, -54, 54, -19], [33, 35, -24, 92, 29, -93]]",2,0,0,[],33,"[0.2, 0.2, 0.1, 0.5]",33,3,[],,,instruct1,0
14,53753,mouselab,2256.0,"[[-148, 9, -15, -32, -27, -91], [170, -28, -148, 118, -33, -10], [-18, 76, 0, -54, 54, -19], [33, 35, -24, 92, 29, -93]]",2,0,1,[],35,"[0.2, 0.2, 0.1, 0.5]",35,3,[],,,instruct1,1
14,59192,mouselab,1576.0,"[[-148, 9, -15, -32, -27, -91], [170, -28, -148, 118, -33, -10], [-18, 76, 0, -54, 54, -19], [33, 35, -24, 92, 29, -93]]",2,0,2,[],-15,"[0.2, 0.2, 0.1, 0.5]",-15,0,[],,,instruct1,2
14,128822,mouselab,10125.0,"[[110, 5, 47, 12, -63, 140], [6, 13, -15, 27, -117, 64], [41, -60, -25, 103, -81, 127], [-15, -29, 62, -16, 9, 81]]",2,0,5,[],127,"[0.19, 0.32, 0.24, 0.25]",127,2,[],,,instruct2,0
14,132724,mouselab,2467.0,"[[33, 73, -21, 54, -43, 101], [-30, 25, 19, -2, 84, 120], [24, -125, -58, -7, -20, 38], [101, 53, 171, -97, 93, 208]]",2,0,5,[],208,"[0.2, 0.26, 0.34, 0.2]",208,3,[],,,instruct2,1
14,135768,mouselab,1817.0,"[[1, 32, 19, -36, -29, -103], [5, 17, -103, -183, -53, -189], [-11, 86, -48, -54, -114, 50], [-8, 75, -15, -133, 45, -174]]",2,0,1,[],32,"[0.26, 0.28, 0.2, 0.26]",32,0,[],,,instruct2,2
14,153364,mouselab,15417.0,"[[-11, -102, 88, 102, 38, 17], [-110, 39, 56, -7, -162, 144], [5, -29, -6, 30, -57, -11], [203, -95, -11, 98, -58, -3]]",2,6,2,"[0, 7, 8]",88,"[0.37, 0.25, 0.26, 0.12]",82,0,"[12272, 12635, 13021]",,,instruct3,0
14,161214,mouselab,6639.0,"[[77, -48, -30, -68, -94, -89], [-34, -28, -34, -12, 62, 22], [22, -5, 105, -167, 141, 35], [69, -45, -26, -178, -96, 91]]",2,6,0,"[18, 20, 22]",69,"[0.3, 0.21, 0.17, 0.32]",63,3,"[4056, 4821, 5370]",,,instruct3,1
14,164606,mouselab,2552.0,"[[46, -129, 29, 0, -78, -103], [-32, -120, 125, -84, -1, 40], [69, 55, 108, 169, -193, 8], [-8, -127, 97, 21, -70, 100]]",2,6,2,"[6, 7, 8]",29,"[0.16, 0.19, 0.2, 0.45]",23,0,"[1012, 1492, 1870]",,,instruct3,2
14,174490,mouselab,5981.0,"[[105, -31, -104, -11, 58, 158], [20, 75, 26, 148, 129, 37], [9, -82, 168, -129, -14, 4], [-61, 22, 114, -89, -31, 72]]",2,0,0,[],-61,"[0.17, 0.29, 0.3, 0.24]",-61,3,[],,,test,0
14,176420,mouselab,919.0,"[[-80, 3, 47, 109, -40, 136], [-48, 39, 24, 22, 18, -145], [-20, -11, -127, -85, 67, 83], [7, 150, -38, -44, 11, 54]]",2,0,2,[],-127,"[0.23, 0.17, 0.35, 0.25]",-127,2,[],,,test,1
14,178376,mouselab,788.0,"[[107, 94, -115, 65, 77, -14], [-60, -70, -48, 7, -39, -59], [2, -113, -137, -19, -87, 10], [-89, 46, 13, 109, 86, -54]]",2,0,3,[],109,"[0.31, 0.26, 0.23, 0.2]",109,3,[],,,test,2
14,179998,mouselab,781.0,"[[27, 107, -64, -19, 19, 57], [-136, -151, -4, 0, -4, -111], [-86, -80, 24, -59, 95, -90], [-77, -87, -6, -124, 36, -12]]",2,0,5,[],-12,"[0.38, 0.22, 0.13, 0.27]",-12,3,[],,,test,3
14,181512,mouselab,634.0,"[[84, -15, 29, 54, -138, 106], [-13, 116, 12, 50, 42, 22], [52, 61, -37, 61, 40, -36], [73, 78, -69, -49, 54, -23]]",2,0,4,[],42,"[0.24, 0.22, 0.38, 0.16]",42,1,[],,,test,4
14,183080,mouselab,588.0,"[[-24, -73, -19, -57, 43, -58], [49, -16, -51, 78, -111, 37], [-41, -63, -11, -99, -99, 120], [-185, -108, -102, 38, -72, 82]]",2,0,3,[],38,"[0.27, 0.26, 0.23, 0.24]",38,3,[],,,test,5
14,185384,mouselab,1029.0,"[[-21, -86, 11, -30, -54, -48], [60, -94, -32, 87, 37, 16], [75, -9, 31, -19, 46, -114], [69, 5, -73, -52, 44, 16]]",2,0,5,[],-114,"[0.16, 0.31, 0.28, 0.25]",-114,2,[],,,test,6
14,187384,mouselab,882.0,"[[101, -61, 102, -166, 37, 158], [-105, 14, -11, -32, 13, 58], [-99, -80, 46, 70, -38, -161], [-8, 6, 59, -121, 167, -56]]",2,0,0,[],-105,"[0.28, 0.16, 0.33, 0.23]",-105,1,[],,,test,7
14,193142,mouselab,1833.0,"[[44, -54, -3, 1, -15, 116], [-12, -12, 68, -57, 40, 116], [-2, -70, 53, -40, -45, 34], [-156, 55, -5, 24, -65, -4]]",2,0,1,[],-12,"[0.3500000000000001, 0.31, 0.21, 0.13]",-12,1,[],,,test,8
14,195876,mouselab,872.0,"[[-15, 22, -87, -155, 128, 8], [-15, -96, -63, 78, 32, 37], [-159, 107, 25, 96, 20, -4], [17, 34, -44, -118, 36, -60]]",2,0,2,[],-63,"[0.13, 0.32, 0.27, 0.28]",-63,1,[],,,test,9
21,141471,mouselab,117976.0,"[[38, 102, 32, 129, -46, 105], [-65, 22, -187, 59, 34, -62], [306, -43, 40, -151, 71, 159], [257, -61, -107, -144, 223, -156]]",2,0,0,[],38,"[0.2, 0.2, 0.1, 0.5]",38,0,[],,,instruct1,0
21,149686,mouselab,4656.0,"[[38, 102, 32, 129, -46, 105], [-65, 22, -187, 59, 34, -62], [306, -43, 40, -151, 71, 159], [257, -61, -107, -144, 223, -156]]",2,0,1,[],102,"[0.2, 0.2, 0.1, 0.5]",102,0,[],,,instruct1,1
21,152958,mouselab,1278.0,"[[38, 102, 32, 129, -46, 105], [-65, 22, -187, 59, 34, -62], [306, -43, 40, -151, 71, 159], [257, -61, -107, -144, 223, -156]]",2,0,2,[],-107,"[0.2, 0.2, 0.1, 0.5]",-107,3,[],,,instruct1,2
21,277710,mouselab,12024.0,"[[235, -106, 82, 208, -8, -180], [290, 263, -92, -152, -73, 73], [312, 2, -42, 268, -109, 176], [219, -14, 167, -128, 182, 44]]",2,0,0,[],219,"[0.38, 0.18, 0.18, 0.26]",219,3,[],,,instruct2,0
21,286101,mouselab,5048.0,"[[129, -245, -175, 54, 9, 150], [338, 87, 325, 26, 63, 412], [-320, -247, 238, -92, 224, 309], [-43, -408, -126, 95, 33, 140]]",2,0,5,[],150,"[0.26, 0.3, 0.23, 0.21]",150,0,[],,,instruct2,1
21,293582,mouselab,4624.0,"[[18, -130, 186, -21, -10, 224], [197, 191, 163, -212, 47, 267], [165, 2, -54, 118, 28, 215], [-84, 129, 126, 241, -81, 266]]",2,0,5,[],266,"[0.26, 0.27, 0.22, 0.25]",266,3,[],,,instruct2,2
21,355566,mouselab,48160.0,"[[-155, -142, 141, -37, -101, -211], [-113, 77, 49, 66, 116, -174], [-50, -165, -66, -22, 285, -132], [-55, 297, -184, 167, 56, 195]]",2,16,4,"[0, 13, 9, 15, 10, 4, 16, 22]",56,"[0.25, 0.26, 0.24, 0.25]",40,3,"[20247, 21999, 23728, 32447, 40359, 41239, 41855, 42823]",,,instruct3,0
21,370758,mouselab,10303.0,"[[-107, -68, 378, -154, -79, 127], [199, -83, 382, -138, 91, 106], [-91, -57, 96, 83, -30, -341], [-20, -10, -150, -181, 39, -268]]",2,10,2,"[23, 21, 13, 12, 18]",382,"[0.26, 0.29, 0.22, 0.23]",372,1,"[2998, 4487, 6159, 7535, 8031]",,,instruct3,1
21,384662,mouselab,10377.0,"[[50, -296, -10, -89, 60, 86], [20, 1, 60, -138, -284, 207], [-112, 183, 28, 4, 40, -7], [221, -6, 210, 64, -48, -14]]",2,8,2,"[16, 14, 19, 20]",-10,"[0.3, 0.3, 0.25, 0.15]",-18,0,"[3064, 4312, 5497, 8807]",,,instruct3,2
21,415054,mouselab,6033.0,"[[-68, 24, -350, 14, -107, -285], [233, 102, 226, 77, -138, -309], [-220, 157, 95, -12, -52, -115], [-174, 158, 30, 191, -127, 195]]",2,4,2,"[8, 14]",30,"[0.21, 0.29, 0.28, 0.22]",26,3,"[3207, 4400]",,,test,0
21,425646,mouselab,6272.0,"[[-334, 33, 30, -196, -69, 232], [90, 214, 207, -24, 109, -197], [-233, 192, -114, 49, -200, 75], [-133, 3, -132, -109, 6, -25]]",2,6,2,"[17, 15, 8]",30,"[0.33, 0.15, 0.32, 0.2]",24,0,"[2206, 3062, 4879]",,,test,1
21,435654,mouselab,8489.0,"[[-155, -86, -4, -151, -51, 9], [166, -92, -77, -10, 309, -43], [-41, 7, 187, 128, 128, -12], [54, 80, -58, -199, -321, 8]]",2,8,2,"[1, 3, 5, 14]",-4,"[0.34, 0.17, 0.27, 0.22]",-12,0,"[3351, 4480, 5344, 7367]",,,test,2
21,452885,mouselab,13415.0,"[[387, 98, 13, 81, -76, 114], [89, 223, 180, -36, 42, -10], [-60, -103, -338, 285, 121, 22], [-15, -305, -204, -211, -69, -288]]",2,16,3,"[6, 8, 10, 20, 22, 18, 11, 15]",-36,"[0.2, 0.28, 0.24, 0.28]",-52,1,"[4127, 5342, 6190, 6919, 9159, 10270, 11439, 12511]",,,test,3
21,463046,mouselab,6280.0,"[[93, -182, -22, 36, 86, 152], [-99, 115, 101, 276, -154, -1], [233, -6, 80, -72, 38, -349], [295, 226, 207, -25, -79, -331]]",2,6,0,"[18, 12, 6]",93,"[0.27, 0.2, 0.23, 0.3]",87,0,"[2534, 4430, 5239]",,,test,4
21,473350,mouselab,7528.0,"[[185, -30, -92, 145, -174, 119], [208, 204, -32, -9, 199, 190], [96, -136, -279, 92, 149, -59], [-165, 251, -201, -378, 106, 44]]",2,10,0,"[0, 1, 18, 6, 12]",185,"[0.27999999999999997, 0.26, 0.21, 0.25]",175,0,"[2215, 2927, 3895, 4767, 6432]",,,test,5
21,486062,mouselab,10089.0,"[[-353, 81, 97, 334, -263, 82], [65, 50, 19, 132, -63, -135], [66, -84, -11, 3, 43, -106], [124, -84, -160, 32, -57, -81]]",2,10,0,"[6, 7, 0, 18, 12]",66,"[0.26, 0.3, 0.19, 0.25]",56,2,"[2263, 2975, 4408, 5991, 8375]",,,test,6
21,497350,mouselab,9112.0,"[[17, -36, 56, 21, 52, -11], [14, -228, -52, -141, 51, 112], [240, -81, 234, 61, -78, 342], [-75, 38, 49, -27, 85, -77]]",2,14,5,"[6, 8, 9, 11, 5, 17, 23]",112,"[0.21, 0.31, 0.27, 0.21]",98,1,"[2015, 2688, 3471, 4303, 5144, 5679, 6327]",,,test,7
21,510758,mouselab,10360.0,"[[204, 267, 172, 21, -99, 44], [101, 108, 96, -72, 176, 39], [17, -162, -313, 105, 50, -111], [-65, -135, -47, -81, -147, -91]]",2,10,0,"[0, 1, 13, 12, 6]",101,"[0.3, 0.2, 0.26, 0.24]",91,1,"[4912, 5600, 7775, 8215, 9128]",,,test,8
21,524838,mouselab,9911.0,"[[37, 25, -84, -88, -256, -197], [30, -188, -107, 247, -74, 33], [84, -151, 105, -294, 105, -116], [-5, -92, 110, 165, -165, 212]]",2,14,0,"[0, 2, 12, 13, 6, 18, 15]",30,"[0.36, 0.18, 0.2, 0.26]",16,1,"[2280, 3767, 4809, 5176, 5815, 6320, 8783]",,,test,9
8,52122,mouselab,31077.0,"[[-44, 75, -250, -223, -266, -15], [80, 117, 283, 14, -3, -89], [-134, -77, 70, -173, -110, -9], [259, -236, 125, 279, -202, -394]]",2,0,0,[],80,"[0.2, 0.2, 0.1, 0.5]",80,1,[],,,instruct1,0
8,65160,mouselab,10360.0,"[[-44, 75, -250, -223, -266, -15], [80, 117, 283, 14, -3, -89], [-134, -77, 70, -173, -110, -9], [259, -236, 125, 279, -202, -394]]",2,0,1,[],75,"[0.2, 0.2, 0.1, 0.5]",75,0,[],,,instruct1,1
8,69823,mouselab,2144.0,"[[-44, 75, -250, -223, -266, -15], [80, 117, 283, 14, -3, -89], [-134, -77, 70, -173, -110, -9], [259, -236, 125, 279, -202, -394]]",2,0,2,[],125,"[0.2, 0.2, 0.1, 0.5]",125,3,[],,,instruct1,2
8,184337,mouselab,10549.0,"[[122, 77, -41, -45, -78, 33], [294, -143, 210, 183, -131, 249], [167, -4, -95, -150, 147, -114], [154, 93, 95, -140, -107, 71]]",2,0,0,[],294,"[0.13, 0.6, 0.22, 0.05]",294,1,[],,,instruct2,0
8,200799,mouselab,13307.0,"[[16, 168, -59, 19, 225, -28], [68, 11, -202, -279, 101, -62], [-117, 46, 88, -243, 253, 187], [76, 131, -60, 167, 189, -17]]",2,0,4,[],101,"[0.32, 0.41, 0.16, 0.11]",101,1,[],,,instruct2,1
8,212097,mouselab,7840.0,"[[41, 13, 40, 109, 48, -93], [-11, -12, -147, 330, -63, 313], [-113, 236, -109, 297, 36, -9], [118, -111, -13, 281, -35, 264]]",2,0,3,[],330,"[0.26, 0.38, 0.24, 0.12]",330,1,[],,,instruct2,2
8,244325,mouselab,27687.0,"[[80, -93, -72, -174, 100, -64], [168, 106, -153, -71, -51, 123], [96, 231, -240, -306, -193, 69], [39, -153, 152, -175, 190, 30]]",2,6,0,"[0, 2, 3]",168,"[0.48, 0.23, 0.22, 0.07]",162,1,"[17981, 19673, 21430]",,,instruct3,0
8,265178,mouselab,17831.0,"[[219, 1, -44, 189, -147, -102], [204, -143, 114, -133, 101, -32], [102, -107, -146, -46, 166, -141], [189, -150, 25, -64, -101, 175]]",2,6,4,"[12, 15, 16]",-147,"[0.26, 0.26, 0.28, 0.2]",-153,0,"[12032, 13467, 14201]",,,instruct3,1
8,274474,mouselab,6730.0,"[[7, -186, 84, -238, -15, 84], [16, 118, 52, 14, -28, 93], [-153, 311, -66, -170, 108, 21], [-80, 94, -143, 9, -199, 152]]",2,6,2,"[0, 1, 2]",84,"[0.25, 0.19, 0.07, 0.49]",78,0,"[3048, 3678, 4194]",,,instruct3,2
8,297769,mouselab,12504.0,"[[126, -266, -261, -16, -142, 438], [-4, 211, 86, 20, -41, -178], [117, -96, 122, -12, -87, 195], [55, 216, -168, 116, 21, -308]]",2,6,5,"[13, 15, 16]",195,"[0.03, 0.11, 0.44, 0.42]",189,2,"[6368, 8425, 9530]",,,test,0
8,308251,mouselab,7863.0,"[[181, 56, 145, 93, 91, -55], [-133, -146, -104, -21, -97, 119], [-63, 7, 312, 80, 79, -526], [340, 135, -29, -236, 132, -267]]",2,6,2,"[1, 2, 3]",145,"[0.49, 0.02, 0.2, 0.29]",139,0,"[2895, 4056, 6400]",,,test,1
8,322857,mouselab,10314.0,"[[88, 57, -23, 56, 85, -55], [36, 152, -57, 65, -68, 25], [-419, -161, 115, 142, 111, 40], [442, -49, -83, 108, 15, 362]]",2,6,1,"[8, 7, 10]",152,"[0.029999999999999992, 0.37, 0.27, 0.33]",146,1,"[4761, 6474, 8732]",,,test,2
8,333997,mouselab,8862.0,"[[30, -108, 149, -161, -152, -301], [128, -127, -75, 44, 109, 240], [-150, 94, 34, 162, -202, 20], [-133, 148, 99, -205, 72, 215]]",2,6,0,"[3, 1, 4]",128,"[0.53, 0.28, 0.02, 0.17]",122,1,"[3545, 4662, 7186]",,,test,3
8,344131,mouselab,7347.0,"[[111, 157, -138, -259, -13, -435], [-125, -2, -143, -7, -104, -191], [77, 83, 9, 231, -19, -78], [9, 153, -165, 44, -100, -105]]",2,6,3,"[12, 14, 15]",231,"[0.06, 0.11, 0.45, 0.38]",225,2,"[3900, 5183, 6107]",,,test,4
8,353284,mouselab,6916.0,"[[-222, 133, 160, -204, -18, 60], [237, -152, 92, 16, -96, 51], [16, -32, 124, -139, 136, -223], [-42, 2, -109, -154, -194, -143]]",2,6,2,"[14, 15, 17]",124,"[0.07000000000000012, 0.14, 0.71, 0.08]",118,2,"[2791, 3892, 5285]",,,test,5
8,362818,mouselab,7521.0,"[[-15, 102, -79, -66, -255, -221], [-97, -267, -3, 73, 177, 176], [23, 131, 159, -54, -41, -224], [-100, -270, -101, 71, -93, -1]]",2,6,1,"[0, 2, 4]",131,"[0.45999999999999996, 0.07, 0.39, 0.08]",125,2,"[3623, 4610, 5796]",,,test,6
8,372889,mouselab,7684.0,"[[44, -50, -65, -263, 181, 15], [189, -177, 168, -135, 320, 42], [-40, 119, -197, 201, 119, 56], [133, 279, 69, 0, 179, -130]]",2,6,4,"[1, 2, 3]",181,"[0.54, 0.01, 0.15, 0.3]",175,0,"[4203, 5256, 6225]",,,test,7
8,385062,mouselab,8809.0,"[[56, 21, 87, 114, 344, 196], [-82, -269, 110, -21, 41, -168], [-115, -65, 150, 133, 149, -206], [353, 78, -24, -228, -209, 32]]",2,6,2,"[8, 10, 6]",110,"[0.03, 0.5, 0.06, 0.41]",104,1,"[4065, 5509, 7307]",,,test,8
8,395643,mouselab,6607.0,"[[71, 72, 16, 139, 23, 41], [-121, -89, 88, -65, 52, -45], [-112, -188, -182, -60, 190, -184], [-74, 195, 63, 171, -202, 76]]",2,6,1,"[19, 21, 22]",195,"[0.01, 0.24, 0.04, 0.71]",189,3,"[2549, 3788, 4788]",,,test,9
19,111209,mouselab,98190.0,"[[-64, -87, -29, 58, -53, -7], [45, 173, 103, -25, 68, -168], [18, -60, 26, -1, 55, 65], [-23, -10, -80, 11, 183, 43]]",2,0,0,[],45,"[0.2, 0.2, 0.1, 0.5]",45,1,[],,,instruct1,0
19,241833,mouselab,115635.0,"[[-64, -87, -29, 58, -53, -7], [45, 173, 103, -25, 68, -168], [18, -60, 26, -1, 55, 65], [-23, -10, -80, 11, 183, 43]]",2,0,2,[],103,"[0.2, 0.2, 0.1, 0.5]",103,1,[],,,instruct1,1
19,263762,mouselab,18586.0,"[[-64, -87, -29, 58, -53, -7], [45, 173, 103, -25, 68, -168], [18, -60, 26, -1, 55, 65], [-23, -10, -80, 11, 183, 43]]",2,0,4,[],183,"[0.2, 0.2, 0.1, 0.5]",183,3,[],,,instruct1,2
19,489431,mouselab,9867.0,"[[-228, -34, -7, 39, 50, 42], [69, 3, -31, 67, 91, 64], [-92, 8, -137, -68, 88, 54], [28, -105, -82, -18, 52, 3]]",2,0,4,[],52,"[0.33999999999999997, 0.3, 0.14, 0.22]",52,3,[],,,instruct2,0
19,496117,mouselab,4446.0,"[[-135, 121, -118, 98, -51, -152], [146, 172, -9, -52, 37, -60], [28, 161, 47, 9, 125, 45], [75, 103, 6, -106, 31, -17]]",2,0,1,[],172,"[0.21000000000000002, 0.21, 0.32, 0.26]",172,1,[],,,instruct2,1
19,503790,mouselab,5520.0,"[[93, -96, -94, 41, 59, 63], [47, -71, 36, -7, 1, -17], [147, -47, 132, -77, 109, 126], [40, 2, -105, 10, 14, -52]]",2,0,0,[],93,"[0.28, 0.15, 0.25, 0.32]",93,0,[],,,instruct2,2
19,577445,mouselab,67143.0,"[[-86, -118, 8, 83, 44, 36], [-20, 100, -59, 67, 6, 58], [-1, -112, 78, 11, -4, -71], [-55, -36, -123, 90, 105, -40]]",2,48,2,"[8, 4, 6, 0, 16, 14, 19, 7, 2, 15, 3, 20, 23, 11, 9, 10, 5, 12, 18, 13, 1, 22, 21, 17]",78,"[0.3, 0.26, 0.29, 0.15]",30,2,"[3246, 5142, 8159, 9446, 11216, 12446, 14384, 15775, 17222, 19782, 21111, 22624, 23630, 25070, 26470, 27359, 28439, 31336, 32711, 33631, 34358, 35471, 36102, 37079]",,,instruct3,0
19,600998,mouselab,12465.0,"[[4, 63, 43, -169, 63, 56], [-10, 35, -13, 51, -14, -93], [23, 28, 102, -69, 74, -21], [-14, 9, -2, 105, -21, -56]]",2,0,1,[],63,"[0.25, 0.16, 0.35, 0.24]",63,0,[],,,instruct3,1
19,609443,mouselab,2200.0,"[[-80, 3, 47, 109, -40, 136], [-48, 39, 24, 22, 18, -145], [-20, -11, -127, -85, 67, 83], [7, 150, -38, -44, 11, 54]]",2,0,4,[],11,"[0.23, 0.17, 0.35, 0.25]",11,3,[],,,instruct3,2
19,618887,mouselab,2647.0,"[[65, 27, 47, 129, -13, 62], [-5, -16, 34, 15, 169, -38], [-78, 22, 107, -83, -62, -26], [-54, -184, 10, 18, 22, 31]]",2,0,1,[],-184,"[0.14, 0.31, 0.28, 0.27]",-184,3,[],,,test,0
19,623718,mouselab,1759.0,"[[66, 38, 172, 6, -145, -110], [-71, 22, -112, -196, -51, 115], [-4, 12, -68, 104, 154, 47], [42, 105, 94, 25, 35, 2]]",2,0,3,[],-196,"[0.31, 0.28, 0.21, 0.2]",-196,1,[],,,test,1
19,631401,mouselab,3428.0,"[[-148, 9, -15, -32, -27, -91], [170, -28, -148, 118, -33, -10], [-18, 76, 0, -54, 54, -19], [33, 35, -24, 92, 29, -93]]",2,0,1,[],9,"[0.3, 0.27, 0.16, 0.27]",9,0,[],,,test,2
19,636546,mouselab,1502.0,"[[-136, 94, 11, -16, 59, -93], [-83, -122, 50, 61, 70, -135], [13, 121, 36, 109, -13, 38], [-66, -11, -53, 17, -12, 5]]",2,0,2,[],50,"[0.31, 0.2, 0.28, 0.21]",50,1,[],,,test,3
19,639735,mouselab,1414.0,"[[-53, -41, -95, -99, 15, -86], [-57, 57, 124, 21, -102, -31], [-94, 12, 125, -115, -16, 136], [101, 74, 66, 17, -87, -82]]",2,0,4,[],-102,"[0.1899999999999999, 0.44, 0.2, 0.17]",-102,1,[],,,test,4
19,643881,mouselab,1721.0,"[[58, 32, 33, -39, -41, -15], [30, 59, 37, -14, -16, -44], [-94, -55, -9, -163, 52, -119], [-41, 84, 97, 34, -232, 102]]",2,0,2,[],33,"[0.24, 0.3, 0.28, 0.18]",33,0,[],,,test,5
19,647265,mouselab,1726.0,"[[78, 70, -45, -64, -94, 36], [-14, -138, 51, 142, -58, -20], [-106, -221, -23, -34, 36, -37], [29, -28, 122, 77, 40, -63]]",2,0,4,[],36,"[0.27999999999999997, 0.22, 0.26, 0.24]",36,2,[],,,test,6
19,650760,mouselab,1702.0,"[[-181, -41, 6, -11, 1, -32], [-48, 30, 15, 60, 98, 44], [-105, 35, -37, -73, -92, 56], [15, -130, -47, 72, -85, 26]]",2,0,5,[],44,"[0.18, 0.29, 0.23, 0.3]",44,1,[],,,test,7
19,653793,mouselab,1339.0,"[[84, -15, 29, 54, -138, 106], [-13, 116, 12, 50, 42, 22], [52, 61, -37, 61, 40, -36], [73, 78, -69, -49, 54, -23]]",2,0,1,[],116,"[0.24, 0.22, 0.38, 0.16]",116,1,[],,,test,8
19,657520,mouselab,1977.0,"[[-105, 53, -61, 187, 56, 10], [29, -60, 97, -21, 153, 90], [9, 109, -8, -9, -56, 51], [93, 28, -100, -26, -97, -37]]",2,0,0,[],29,"[0.22, 0.39, 0.21, 0.18]",29,1,[],,,test,9
1,174182,mouselab,133844.0,"[[-225, 120, -81, -13, -66, 264], [33, 106, 65, 340, -99, 165], [206, 179, -74, 185, -16, 151], [10, -114, 172, 51, -209, -293]]",2,0,0,[],10,"[0.2, 0.2, 0.1, 0.5]",10,3,[],,,instruct1,0
1,200345,mouselab,23278.0,"[[-225, 120, -81, -13, -66, 264], [33, 106, 65, 340, -99, 165], [206, 179, -74, 185, -16, 151], [10, -114, 172, 51, -209, -293]]",2,0,1,[],120,"[0.2, 0.2, 0.1, 0.5]",120,0,[],,,instruct1,1
1,205595,mouselab,1616.0,"[[-225, 120, -81, -13, -66, 264], [33, 106, 65, 340, -99, 165], [206, 179, -74, 185, -16, 151], [10, -114, 172, 51, -209, -293]]",2,0,2,[],172,"[0.2, 0.2, 0.1, 0.5]",172,3,[],,,instruct1,2
1,441644,mouselab,19617.0,"[[-25, -78, -337, -29, 36, 53], [-183, -71, 211, 203, 241, 268], [85, 229, 48, -244, 123, 245], [-98, -114, 38, -131, 87, 131]]",2,0,5,[],53,"[0.95, 0.03, 0.01, 0.01]",53,0,[],,,instruct2,0
1,456854,mouselab,11952.0,"[[2, -131, -256, -49, -37, -121], [393, 1, 323, -88, 102, -197], [318, 203, -165, -52, -54, 281], [356, 34, 282, -84, 132, -1]]",2,0,0,[],356,"[0.02, 0.05, 0.33, 0.6]",356,3,[],,,instruct2,1
1,465042,mouselab,5196.0,"[[-68, 11, 174, 103, -120, 85], [170, -100, 207, 141, -142, 12], [-30, -125, 80, -205, 7, -125], [-137, 86, 126, 60, 66, -46]]",2,0,2,[],207,"[0.19999999999999998, 0.06, 0.16, 0.58]",207,1,[],,,instruct2,2
1,490298,mouselab,18085.0,"[[-170, -194, 144, -200, -11, 4], [-110, 164, -67, 139, 434, -163], [71, 43, -135, 52, -43, -116], [222, -200, -17, 74, -2, -82]]",2,6,4,"[6, 8, 10]",434,"[0.02, 0.22, 0.06, 0.7]",428,1,"[10210, 13436, 15818]",,,instruct3,0
1,522228,mouselab,9963.0,"[[123, -104, 0, -39, 134, -16], [-73, -271, -49, 36, -244, 199], [-341, 64, -255, 178, -46, -133], [-129, -148, -44, 80, 79, -129]]",2,6,4,"[0, 2, 4]",134,"[0.48, 0.3, 0.2, 0.02]",128,0,"[6406, 7607, 8614]",,,instruct3,1
1,536642,mouselab,8501.0,"[[-91, -97, 134, 13, 209, 127], [-110, -173, 182, 279, -24, -29], [-299, -52, -292, -270, -21, -78], [276, -34, -30, 5, -287, -85]]",2,6,4,"[0, 2, 4]",209,"[0.65, 0.13, 0.19, 0.03]",203,0,"[5102, 5906, 6906]",,,instruct3,2
1,560340,mouselab,6648.0,"[[126, -266, -261, -16, -142, 438], [-4, 211, 86, 20, -41, -178], [117, -96, 122, -12, -87, 195], [55, 216, -168, 116, 21, -308]]",2,6,2,"[12, 14, 16]",122,"[0.03, 0.11, 0.44, 0.42]",116,2,"[2820, 3655, 4599]",,,test,0
1,575708,mouselab,6549.0,"[[44, 18, 52, -69, -10, -27], [-240, -175, -7, -69, 30, 6], [61, 11, -139, 200, 41, -208], [-135, -38, 1, -87, -101, 119]]",2,6,5,"[18, 20, 22]",6,"[0.04000000000000001, 0.1, 0.27, 0.59]",0,1,"[3204, 4132, 5008]",,,test,1
1,589044,mouselab,5991.0,"[[-29, 205, -55, -185, 285, -322], [-156, 131, -41, 22, 311, -68], [149, -101, 35, -184, -118, 77], [43, 248, 123, 103, -78, -195]]",2,6,4,"[6, 8, 10]",-118,"[0.1, 0.68, 0.13, 0.09]",-124,2,"[2561, 3607, 4443]",,,test,2
1,599332,mouselab,6079.0,"[[71, 72, 16, 139, 23, 41], [-121, -89, 88, -65, 52, -45], [-112, -188, -182, -60, 190, -184], [-74, 195, 63, 171, -202, 76]]",2,6,2,"[18, 20, 22]",63,"[0.01, 0.24, 0.04, 0.71]",57,3,"[3124, 3788, 4624]",,,test,3
1,611722,mouselab,5329.0,"[[53, 32, -125, -164, -180, 194], [-61, -92, -83, -37, -141, 68], [-96, 241, 216, -126, 171, -207], [-201, 44, 208, -163, -42, 6]]",2,6,2,"[18, 20, 22]",-83,"[0.05000000000000001, 0.32, 0.02, 0.61]",-89,1,"[2510, 3368, 4118]",,,test,4
1,623170,mouselab,5071.0,"[[129, 79, 23, 3, -106, 218], [-53, -187, 153, -57, 40, 74], [-173, -47, -303, -150, 26, 5], [46, 84, 38, -226, 75, -101]]",2,6,0,"[0, 2, 4]",46,"[0.41, 0.24, 0.02, 0.33]",40,3,"[2798, 3478, 4164]",,,test,5
1,632210,mouselab,7079.0,"[[-149, -416, -107, 23, -25, 272], [-188, -22, -159, 68, 1, -385], [-71, -58, -93, 23, -163, -61], [124, -3, 226, -389, -65, -145]]",2,6,1,"[12, 14, 16]",-22,"[0.32, 0.04, 0.57, 0.07]",-28,1,"[2594, 3438, 4132]",,,test,6
1,640474,mouselab,4764.0,"[[-221, 5, 106, -63, 104, -116], [270, -213, 66, 172, 36, -94], [70, -252, 120, -59, -37, 209], [-251, -224, 249, -105, 158, -85]]",2,6,2,"[18, 20, 22]",120,"[0.19999999999999998, 0.28, 0.04, 0.48]",114,2,"[2210, 2865, 3475]",,,test,7
1,646592,mouselab,4515.0,"[[-157, 140, 227, -282, 273, 61], [148, -19, -139, 77, 238, -286], [-78, 4, 140, 47, -320, -330], [79, -12, -28, -55, -88, 235]]",2,6,2,"[12, 14, 16]",-28,"[0.24, 0.01, 0.62, 0.13]",-34,3,"[2219, 2867, 3515]",,,test,8
1,655576,mouselab,5430.0,"[[-158, 80, 13, 73, -54, -132], [-103, 337, -121, 138, 51, 67], [118, -31, -5, 158, -79, -38], [32, 39, 85, 199, -2, -81]]",2,6,2,"[18, 20, 22]",85,"[0.09, 0.41, 0.01, 0.49]",79,3,"[3115, 3787, 4397]",,,test,9
4,72708,mouselab,58564.0,"[[-133, 179, -175, 65, 153, -255], [291, -76, -7, 76, -310, 62], [-160, -76, 115, -143, 181, -140], [-150, -28, 60, 215, -266, 74]]",2,0,3,[],65,"[0.2, 0.2, 0.1, 0.5]",65,0,[],,,instruct1,0
4,84015,mouselab,9779.0,"[[-133, 179, -175, 65, 153, -255], [291, -76, -7, 76, -310, 62], [-160, -76, 115, -143, 181, -140], [-150, -28, 60, 215, -266, 74]]",2,0,3,[],215,"[0.2, 0.2, 0.1, 0.5]",215,3,[],,,instruct1,1
4,100651,mouselab,14914.0,"[[-133, 179, -175, 65, 153, -255], [291, -76, -7, 76, -310, 62], [-160, -76, 115, -143, 181, -140], [-150, -28, 60, 215, -266, 74]]",2,0,2,[],60,"[0.2, 0.2, 0.1, 0.5]",60,3,[],,,instruct1,2
4,215603,mouselab,14211.0,"[[-134, 110, -213, 73, -50, 147], [41, -130, -126, -216, -61, 67], [64, 134, -77, 92, -294, 152], [256, -91, 47, -332, -217, 314]]",2,0,5,[],152,"[0.27, 0.26, 0.23, 0.24]",152,2,[],,,instruct2,0
4,224051,mouselab,6327.0,"[[-177, 47, -122, 177, 198, -60], [-17, -3, -68, -104, 35, -156], [-176, -1, 79, -213, 99, -84], [52, 245, 51, 127, 278, 27]]",2,0,4,[],278,"[0.21, 0.36, 0.13, 0.3]",278,3,[],,,instruct2,1
4,228839,mouselab,3354.0,"[[-25, 95, 151, -132, -156, -45], [-166, -33, 118, 97, -71, 45], [158, 154, 225, 4, 183, 169], [-107, -81, 304, 231, -242, 125]]",2,0,2,[],118,"[0.26, 0.17, 0.29, 0.28]",118,1,[],,,instruct2,2
4,263545,mouselab,24602.0,"[[204, 267, 172, 21, -99, 44], [101, 108, 96, -72, 176, 39], [17, -162, -313, 105, 50, -111], [-65, -135, -47, -81, -147, -91]]",2,0,0,[],101,"[0.3, 0.2, 0.26, 0.24]",101,1,[],,,instruct3,0
4,277781,mouselab,10253.0,"[[183, -4, 133, -277, -24, 20], [68, -74, 12, -233, -56, 58], [214, 83, 41, -274, -13, 28], [-223, -110, 36, 114, -399, -100]]",2,6,1,"[13, 15, 17]",83,"[0.11, 0.29, 0.36, 0.24]",77,2,"[2516, 3976, 6254]",,,instruct3,1
4,293137,mouselab,11153.0,"[[-124, 173, -136, 142, 33, 9], [-119, -69, -261, 65, 9, -207], [91, 132, 91, -167, -101, -84], [291, -30, 80, -40, -96, -166]]",2,6,3,"[6, 8, 10]",65,"[0.23, 0.43, 0.16, 0.18]",59,1,"[7374, 8300, 9066]",,,instruct3,2
4,320901,mouselab,7481.0,"[[-256, -177, -191, 19, -136, -2], [-79, -274, 90, -98, -182, -36], [-29, 53, -137, -106, 9, -16], [-138, 276, -28, -59, 150, 28]]",2,6,2,"[6, 7, 9]",-191,"[0.27, 0.32, 0.23, 0.18]",-197,0,"[4107, 5403, 6191]",,,test,0
4,329935,mouselab,5900.0,"[[-376, -362, -40, 78, 175, -136], [30, 103, -110, -23, 29, 57], [258, 59, 106, 156, 3, 181], [-218, -118, -8, 19, -18, -110]]",2,6,4,"[1, 9, 10]",-18,"[0.19, 0.29, 0.27, 0.25]",-24,3,"[1635, 2599, 4637]",,,test,1
4,339252,mouselab,7047.0,"[[-327, 115, 75, 127, -37, -32], [-326, 97, 85, 38, 137, -173], [-29, -92, -82, -68, 52, 227], [29, 87, -210, -185, -67, -213]]",2,4,2,"[4, 2]",-210,"[0.28, 0.22, 0.24, 0.26]",-214,3,"[2336, 3310]",,,test,2
4,349495,mouselab,5172.0,"[[81, -171, -107, 268, -92, -36], [-33, 107, -92, 8, 129, -115], [-196, -100, 142, -79, 56, 59], [-205, -122, 43, -36, -88, -275]]",2,6,1,"[1, 9, 7]",107,"[0.26, 0.31, 0.18, 0.25]",101,1,"[779, 2823, 4345]",,,test,3
4,357168,mouselab,6460.0,"[[73, -112, -21, -207, -203, -158], [-203, -28, -24, 58, -82, 114], [-113, 203, -161, -217, -205, 201], [43, -11, 230, -148, -151, 2]]",2,0,2,[],-24,"[0.3099999999999999, 0.21, 0.34, 0.14]",-24,1,[],,,test,4
4,365397,mouselab,6135.0,"[[185, -30, -92, 145, -174, 119], [208, 204, -32, -9, 199, 190], [96, -136, -279, 92, 149, -59], [-165, 251, -201, -378, 106, 44]]",2,6,3,"[15, 4, 2]",-378,"[0.27999999999999997, 0.26, 0.21, 0.25]",-384,3,"[824, 4098, 5100]",,,test,5
4,372389,mouselab,4293.0,"[[-177, -66, -125, -31, 44, -192], [53, 188, -95, 118, 26, -264], [159, -134, 153, 88, -22, -261], [-334, 133, 120, 109, 91, -20]]",2,6,3,"[0, 2, 5]",118,"[0.37, 0.22, 0.16, 0.25]",112,1,"[1101, 2607, 3349]",,,test,6
4,389768,mouselab,14285.0,"[[22, -53, 76, -17, -211, -79], [-101, -175, -97, -184, -334, 215], [-23, -62, 74, 75, 187, -50], [-43, -66, -22, -144, -88, -79]]",2,0,2,[],74,"[0.19999999999999998, 0.14, 0.34, 0.32]",74,2,[],,,test,7
4,403192,mouselab,10738.0,"[[111, -64, -42, -164, 169, -83], [36, -167, -192, -137, 222, 109], [91, -65, 397, -5, -17, -32], [-50, -36, 44, 103, 337, 513]]",2,0,3,[],-164,"[0.36, 0.24, 0.18, 0.22]",-164,0,[],,,test,8
4,410212,mouselab,5072.0,"[[-81, -173, 144, -186, 3, 362], [44, -19, -252, 46, -13, -68], [147, 85, -115, -224, 77, 53], [-105, -148, 176, 245, -11, 10]]",2,0,1,[],85,"[0.15, 0.33, 0.25, 0.27]",85,2,[],,,test,9
22,47672,mouselab,28331.0,"[[-13, -27, 28, -101, 82, 144], [30, 63, -54, -193, -9, -4], [-19, -88, 62, -2, -139, -38], [-52, 21, -150, 8, 143, -92]]",2,0,0,[],-13,"[0.2, 0.2, 0.1, 0.5]",-13,0,[],,,instruct1,0
22,53471,mouselab,2246.0,"[[-13, -27, 28, -101, 82, 144], [30, 63, -54, -193, -9, -4], [-19, -88, 62, -2, -139, -38], [-52, 21, -150, 8, 143, -92]]",2,0,1,[],21,"[0.2, 0.2, 0.1, 0.5]",21,3,[],,,instruct1,1
22,55534,mouselab,1179.0,"[[-13, -27, 28, -101, 82, 144], [30, 63, -54, -193, -9, -4], [-19, -88, 62, -2, -139, -38], [-52, 21, -150, 8, 143, -92]]",2,0,2,[],62,"[0.2, 0.2, 0.1, 0.5]",62,2,[],,,instruct1,2
22,143982,mouselab,12228.0,"[[-51, 136, -113, 124, -215, -106], [2, 67, -3, -62, -114, 31], [102, 114, -67, -16, 40, 43], [-5, 72, 61, -45, -35, 33]]",2,0,1,[],67,"[0.039999999999999994, 0.83, 0.06, 0.07]",67,1,[],,,instruct2,0
22,155457,mouselab,9003.0,"[[110, 101, -112, -12, 44, 59], [239, 24, -9, 2, -107, 203], [156, -9, 121, -8, 4, 54], [109, 80, -17, -94, 47, -102]]",2,0,0,[],110,"[0.85, 0.02, 0.11, 0.02]",110,0,[],,,instruct2,1
22,168203,mouselab,7210.0,"[[24, 35, 11, -17, 9, -71], [-51, 190, 27, -13, 64, 167], [-13, 39, -123, 7, 11, -195], [54, 78, 51, -99, -41, -7]]",2,0,1,[],35,"[0.3400000000000002, 0.1, 0.42, 0.14]",35,0,[],,,instruct2,2
22,235342,mouselab,60275.0,"[[-84, 57, -58, -36, 72, -79], [-77, 33, 39, -55, 41, 100], [-64, -63, 91, -99, -130, -57], [-78, -49, 38, 97, -29, 46]]",2,18,5,"[2, 10, 16, 4, 7, 6, 8, 9, 11]",-57,"[0.12000000000000001, 0.48, 0.25, 0.15]",-75,2,"[53177, 53828, 54275, 54684, 55795, 56183, 56574, 56920, 57289]",,,instruct3,0
22,242611,mouselab,5662.0,"[[-80, -107, -38, 64, 33, -40], [-127, -18, -7, -15, -49, 179], [-51, -67, 71, 53, -88, 70], [-9, 79, -77, -156, 25, -28]]",2,12,5,"[6, 7, 8, 9, 10, 11]",-40,"[0.44, 0.5, 0.04, 0.02]",-52,0,"[2317, 2582, 2908, 3974, 4246, 4489]",,,instruct3,1
22,250255,mouselab,3872.0,"[[92, -21, 13, 37, 93, 5], [-18, 41, 52, -53, 41, -40], [102, 15, -5, 92, 32, 61], [78, 27, 76, -35, 20, 35]]",2,14,0,"[6, 12, 13, 14, 15, 16, 17]",102,"[0.04, 0.27, 0.67, 0.02]",88,2,"[1133, 1747, 1987, 2314, 2566, 2834, 3069]",,,instruct3,2
22,335903,mouselab,63041.0,"[[-3, -50, 25, -11, 50, -58], [51, -19, 93, 15, -27, -19], [-30, -53, -146, -106, -87, 89], [99, 54, -6, -54, -31, 8]]",2,12,0,"[18, 19, 20, 21, 22, 23]",-30,"[0.04, 0.01, 0.4, 0.55]",-42,2,"[59117, 60676, 61066, 61496, 61853, 62194]",,,test,0
22,342512,mouselab,5399.0,"[[-12, 27, -15, -26, 3, -91], [-155, 40, -5, -90, -2, 83], [-16, -4, 45, 79, 25, -63], [15, -59, -71, 13, -33, -110]]",2,12,5,"[6, 7, 8, 9, 10, 11]",83,"[0.07999999999999999, 0.61, 0.16, 0.15]",71,1,"[1318, 1686, 2041, 2381, 2789, 4647]",,,test,1
22,350387,mouselab,6690.0,"[[-22, -63, 123, 75, 31, 24], [-129, 108, 124, 32, -110, 42], [83, -137, -3, -81, 77, -22], [24, -135, 107, -42, 39, -78]]",2,16,2,"[18, 19, 20, 21, 22, 23, 14, 8]",-3,"[0.06000000000000001, 0.28, 0.25, 0.41]",-19,2,"[1850, 2218, 2575, 2920, 3305, 3743, 4520, 5732]",,,test,2
22,355932,mouselab,3223.0,"[[-54, 36, -65, -7, -103, 1], [-78, 106, -19, -44, -42, 1], [-59, 103, -83, -51, 25, 41], [-8, 128, -45, 15, 175, 59]]",2,12,1,"[6, 7, 8, 9, 10, 11]",106,"[0.20000000000000012, 0.47, 0.23, 0.1]",94,1,"[1128, 1411, 1717, 2091, 2387, 2658]",,,test,3
22,365967,mouselab,6731.0,"[[-77, 110, -62, 21, 40, -30], [66, -102, 76, -55, -20, -101], [11, 84, 26, -51, 43, 20], [70, 19, 19, 166, -46, 49]]",2,16,0,"[6, 7, 8, 9, 10, 11, 20, 18]",66,"[0.03, 0.5, 0.05, 0.42]",50,1,"[2408, 2855, 3251, 3547, 3892, 4245, 4812, 5250]",,,test,4
22,371600,mouselab,4336.0,"[[3, 62, -71, 13, -50, -138], [-75, 29, -63, 14, 91, -32], [39, 76, -84, 25, 11, -6], [112, -24, -40, -67, 13, 2]]",2,12,1,"[12, 13, 14, 15, 16, 17]",29,"[0.2, 0.19, 0.59, 0.02]",17,1,"[1136, 1523, 1884, 2247, 2559, 2910]",,,test,5
22,378422,mouselab,5625.0,"[[-36, -91, 124, -60, -7, 70], [51, 71, 13, -4, -69, -38], [-2, -36, -12, 187, 61, -15], [59, 15, -41, -51, -153, 7]]",2,16,3,"[12, 13, 14, 15, 16, 17, 9, 10]",187,"[0.06999999999999999, 0.33, 0.49, 0.11]",171,2,"[1251, 1670, 1998, 2371, 2791, 3278, 4041, 5064]",,,test,6
22,387473,mouselab,6468.0,"[[-14, 45, -72, -107, -35, 117], [-57, 68, -3, -15, 45, -48], [-59, -9, 99, -49, 176, -41], [-6, -87, 97, -21, 37, 10]]",2,16,4,"[12, 13, 14, 15, 16, 17, 22, 20]",37,"[0.1, 0.05, 0.47, 0.38]",21,3,"[1232, 1671, 2113, 2505, 2901, 3216, 3626, 4287]",,,test,7
22,396822,mouselab,7791.0,"[[-77, -23, 60, -69, -156, 25], [-44, 23, -92, -95, -112, 42], [-76, 53, -2, 70, 40, 68], [-90, 32, -148, 57, -23, -9]]",2,14,3,"[18, 19, 20, 21, 22, 23, 13]",-69,"[0.12, 0.1, 0.01, 0.77]",-83,0,"[1588, 1988, 2397, 2779, 3109, 3450, 4338]",,,test,8
22,408740,mouselab,10099.0,"[[43, 6, 10, 64, 4, 0], [-88, 30, -65, -30, -84, -10], [6, 51, -15, 10, -22, -26], [4, -118, 14, -27, 46, 28]]",2,18,5,"[18, 19, 20, 21, 22, 23, 10, 8, 11]",-10,"[0.02, 0.41, 0.02, 0.55]",-28,1,"[1504, 1840, 2122, 2418, 2707, 2983, 4525, 5330, 7213]",,,test,9
20,24426,mouselab,13236.0,"[[164, 63, 78, 79, -87, 34], [-115, 73, -129, -54, -54, 19], [34, -46, 49, 28, -120, -168], [10, -29, -102, 33, 11, 2]]",2,0,0,[],-115,"[0.2, 0.2, 0.1, 0.5]",-115,1,[],,,instruct1,0
20,29254,mouselab,2640.0,"[[164, 63, 78, 79, -87, 34], [-115, 73, -129, -54, -54, 19], [34, -46, 49, 28, -120, -168], [10, -29, -102, 33, 11, 2]]",2,0,1,[],-29,"[0.2, 0.2, 0.1, 0.5]",-29,3,[],,,instruct1,1
20,32731,mouselab,1838.0,"[[164, 63, 78, 79, -87, 34], [-115, 73, -129, -54, -54, 19], [34, -46, 49, 28, -120, -168], [10, -29, -102, 33, 11, 2]]",2,0,2,[],78,"[0.2, 0.2, 0.1, 0.5]",78,0,[],,,instruct1,2
20,99415,mouselab,10556.0,"[[36, 124, -14, 153, -20, -116], [13, -58, 30, 72, -56, 36], [-12, 59, -37, 82, 48, -121], [78, -32, -40, 215, 200, 63]]",2,0,3,[],153,"[0.91, 0.01, 0.03, 0.05]",153,0,[],,,instruct2,0
20,104402,mouselab,3756.0,"[[58, 35, -36, 6, 87, -36], [91, 107, 128, -66, 237, 215], [43, 38, -65, 1, 62, 34], [-70, 149, -5, -23, 175, -12]]",2,0,4,[],237,"[0.04, 0.51, 0.09, 0.36]",237,1,[],,,instruct2,1
20,107860,mouselab,2052.0,"[[67, -17, -32, 45, -40, -62], [181, -37, 53, -154, 145, 59], [62, -58, 52, -186, 45, -61], [118, -60, 98, 87, -21, 80]]",2,0,0,[],181,"[0.03000000000000001, 0.79, 0.09, 0.09]",181,1,[],,,instruct2,2
20,140371,mouselab,30643.0,"[[19, 73, -36, 18, 113, 11], [-166, -49, -8, 21, 121, -102], [-69, -72, 39, -43, -30, -164], [56, 32, -137, 102, -68, 18]]",2,32,4,"[6, 8, 10, 4, 16, 22, 23, 17, 11, 5, 3, 9, 15, 21, 13, 12]",-68,"[0.24, 0.43, 0.14, 0.19]",-100,3,"[13303, 14422, 16237, 18866, 19661, 20458, 21293, 21925, 22549, 23107, 23724, 24253, 24673, 25244, 25943, 26421]",,,instruct3,0
20,168626,mouselab,26553.0,"[[16, -118, 105, 39, 58, -144], [-18, 132, -121, -146, 120, 54], [11, -100, -63, 21, -145, 36], [-147, 52, 3, -38, 147, 2]]",2,48,5,"[12, 13, 0, 1, 18, 19, 6, 8, 9, 10, 11, 16, 22, 5, 4, 3, 15, 21, 20, 14, 2, 7, 17, 23]",36,"[0.34, 0.04, 0.35, 0.27]",-12,2,"[3230, 3969, 5388, 5917, 7085, 7502, 8369, 8929, 9379, 9766, 10119, 11299, 11794, 12592, 13685, 14119, 14873, 15489, 15820, 16135, 16691, 17079, 17836, 18225]",,,instruct3,1
20,180520,mouselab,10489.0,"[[-30, -194, -1, -157, -10, -56], [-168, 10, 123, 48, -32, -3], [127, 203, 100, -41, 46, 44], [138, -20, -73, -47, -51, 13]]",2,12,1,"[12, 13, 14, 15, 16, 17]",203,"[0.06, 0.06, 0.45, 0.43]",191,2,"[4253, 7239, 7975, 8412, 8881, 9259]",,,instruct3,2
20,195581,mouselab,8126.0,"[[-49, -38, 99, 51, -95, -22], [91, 76, 9, -57, -15, -39], [-18, -31, 26, 239, 1, -62], [-49, -133, -119, 110, -89, -12]]",2,12,3,"[12, 14, 16, 17, 15, 13]",51,"[0.15, 0.04, 0.29, 0.52]",39,0,"[2623, 3313, 4422, 5231, 6354, 7119]",,,test,0
20,203516,mouselab,6273.0,"[[-102, 67, -20, -44, 19, -6], [22, -106, 59, -36, 129, -14], [93, -41, -9, -104, 58, 114], [-16, -13, 75, 31, 115, -9]]",2,12,5,"[12, 13, 14, 15, 16, 17]",-6,"[0.1, 0.27, 0.5, 0.13]",-18,0,"[2334, 2859, 3476, 4280, 4648, 5103]",,,test,1
20,211386,mouselab,6400.0,"[[109, 32, 91, 132, -33, 27], [43, -91, -141, 44, -82, -90], [-13, 33, -23, -23, 1, -2], [-115, -44, -1, -171, 84, 108]]",2,12,3,"[0, 1, 2, 3, 4, 5]",132,"[0.62, 0.24, 0.13, 0.01]",120,0,"[2370, 2739, 3661, 3959, 4472, 5042]",,,test,2
20,220467,mouselab,6485.0,"[[7, 62, -87, 8, 9, -63], [-125, 57, -35, -55, 45, -6], [-34, 42, -6, 15, -27, 2], [9, 61, -9, -20, -69, -23]]",2,12,1,"[6, 7, 8, 9, 10, 11]",61,"[0.01, 0.47, 0.32, 0.2]",49,3,"[2515, 2889, 3547, 3910, 4462, 4912]",,,test,3
20,227798,mouselab,5805.0,"[[56, 13, 57, 95, 86, 85], [-32, 81, 58, -68, -56, -85], [29, 4, 49, 109, 96, 8], [10, -24, 13, 78, -20, 15]]",2,12,1,"[6, 7, 8, 9, 10, 11]",13,"[0.29000000000000004, 0.6, 0.01, 0.1]",1,0,"[1717, 2218, 2655, 3185, 3716, 4191]",,,test,4
20,236067,mouselab,6470.0,"[[63, -6, -89, 4, 22, -29], [-119, -78, -100, -83, 50, -29], [9, -11, 79, 114, -30, 63], [-2, -86, 75, -27, -44, -74]]",2,12,4,"[6, 7, 8, 9, 10, 11]",50,"[0.08, 0.55, 0.17, 0.2]",38,1,"[2595, 3066, 3491, 3920, 4420, 4905]",,,test,5
20,244165,mouselab,6785.0,"[[-3, -50, 25, -11, 50, -58], [51, -19, 93, 15, -27, -19], [-30, -53, -146, -106, -87, 89], [99, 54, -6, -54, -31, 8]]",2,14,0,"[12, 18, 19, 20, 21, 22, 23]",99,"[0.04, 0.01, 0.4, 0.55]",85,3,"[2021, 2801, 3359, 3789, 4171, 4527, 4853]",,,test,6
20,252043,mouselab,6027.0,"[[-21, 63, -46, 51, 9, 19], [51, -48, -12, 61, 95, -68], [95, 53, -52, -104, 75, -77], [88, 144, -110, -21, -29, -139]]",2,12,0,"[12, 13, 14, 15, 16, 17]",95,"[0.009999999999999992, 0.34, 0.59, 0.06]",83,2,"[2519, 3011, 3525, 4004, 4391, 4749]",,,test,7
20,259076,mouselab,5804.0,"[[93, -48, -56, 64, 29, 8], [35, -57, 46, 113, 72, 97], [107, -126, -70, -22, -90, 21], [-54, 83, -106, -70, -45, -7]]",2,12,1,"[18, 19, 20, 21, 22, 23]",83,"[0.27, 0.13, 0.02, 0.58]",71,3,"[2575, 2964, 3387, 3812, 4225, 4578]",,,test,8
20,266473,mouselab,5713.0,"[[41, -1, 34, 28, 120, -31], [22, -75, -26, 67, -3, -79], [36, -39, -32, -18, -1, -68], [-13, -122, -140, -36, -26, 134]]",2,12,5,"[18, 19, 20, 21, 22, 23]",134,"[0.2, 0.03, 0.24, 0.53]",122,3,"[2375, 3021, 3381, 3858, 4284, 4648]",,,test,9
16,70363,mouselab,42286.0,"[[-180, -3, -31, 93, -48, 22], [237, -57, -45, 110, -71, -234], [-146, 114, -170, 112, -398, -306], [-147, -325, 175, 39, 256, 161]]",2,0,0,[],-146,"[0.2, 0.2, 0.1, 0.5]",-146,2,[],,,instruct1,0
16,91480,mouselab,3836.0,"[[-180, -3, -31, 93, -48, 22], [237, -57, -45, 110, -71, -234], [-146, 114, -170, 112, -398, -306], [-147, -325, 175, 39, 256, 161]]",2,0,1,[],-57,"[0.2, 0.2, 0.1, 0.5]",-57,1,[],,,instruct1,1
16,95707,mouselab,2004.0,"[[-180, -3, -31, 93, -48, 22], [237, -57, -45, 110, -71, -234], [-146, 114, -170, 112, -398, -306], [-147, -325, 175, 39, 256, 161]]",2,0,2,[],-31,"[0.2, 0.2, 0.1, 0.5]",-31,0,[],,,instruct1,2
16,242138,mouselab,10445.0,"[[-137, 129, -273, -148, -224, 105], [130, 198, 139, -244, -19, 179], [-70, 230, 181, 211, -179, -45], [-129, 102, 57, -18, -8, -71]]",2,0,1,[],129,"[0.41, 0.01, 0.25, 0.33]",129,0,[],,,instruct2,0
16,255162,mouselab,10723.0,"[[-25, -78, -337, -29, 36, 53], [-183, -71, 211, 203, 241, 268], [85, 229, 48, -244, 123, 245], [-98, -114, 38, -131, 87, 131]]",2,0,5,[],268,"[0.95, 0.03, 0.01, 0.01]",268,1,[],,,instruct2,1
16,269687,mouselab,10976.0,"[[-185, 16, -190, 186, 13, 124], [-69, -66, 4, 54, -185, -35], [272, 61, 103, 330, 0, -127], [12, -171, -31, 83, 6, 35]]",2,0,3,[],186,"[0.9, 0.01, 0.03, 0.06]",186,0,[],,,instruct2,2
16,316848,mouselab,41997.0,"[[67, -98, -97, 161, -176, -362], [36, 98, -192, -33, 116, -132], [-169, -131, -190, 19, -77, -149], [256, -5, 176, -110, 110, -95]]",2,6,1,"[20, 14, 21]",-98,"[0.05, 0.05, 0.05, 0.85]",-104,0,"[27615, 34425, 36825]",,,instruct3,0
16,337613,mouselab,17685.0,"[[38, 36, 139, 86, -241, 42], [-325, -135, 193, 263, -59, -58], [226, 148, 69, -117, -192, -157], [-12, -30, -67, -97, 103, -69]]",2,6,5,"[5, 4, 3]",-69,"[0.2, 0.09, 0.24, 0.47]",-75,3,"[10817, 11795, 12579]",,,instruct3,1
16,347803,mouselab,7796.0,"[[126, -266, -261, -16, -142, 438], [-4, 211, 86, 20, -41, -178], [117, -96, 122, -12, -87, 195], [55, 216, -168, 116, 21, -308]]",2,6,5,"[1, 15, 20]",-308,"[0.03, 0.11, 0.44, 0.42]",-314,3,"[4099, 4949, 6200]",,,instruct3,2
16,374576,mouselab,11638.0,"[[163, -172, 31, -103, -75, 133], [-29, -96, 186, -34, 71, 64], [-190, 11, 237, -191, 60, 47], [-330, 31, 181, -151, 172, 84]]",2,6,0,"[0, 6, 2]",-190,"[0.009999999999999992, 0.21, 0.4, 0.38]",-196,2,"[1282, 2792, 8122]",,,test,0
16,391798,mouselab,8022.0,"[[85, -46, 152, -46, -113, -63], [108, -54, 170, -35, 169, 76], [-53, 94, 267, 58, -142, -326], [202, -251, 11, 17, -77, -15]]",2,6,2,"[4, 3, 2]",170,"[0.62, 0.22, 0.15, 0.01]",164,1,"[3906, 5083, 6031]",,,test,1
16,402499,mouselab,5536.0,"[[-142, -42, -408, -145, 48, -49], [-117, 16, 178, 4, 109, -116], [18, -36, -34, 294, -1, 211], [35, 109, -351, -103, 69, 50]]",2,6,3,"[1, 8, 15]",294,"[0.01000000000000012, 0.21, 0.7, 0.08]",288,2,"[1065, 1775, 2785]",,,test,2
16,414246,mouselab,9837.0,"[[111, 157, -138, -259, -13, -435], [-125, -2, -143, -7, -104, -191], [77, 83, 9, 231, -19, -78], [9, 153, -165, 44, -100, -105]]",2,6,3,"[13, 15, 14]",231,"[0.06, 0.11, 0.45, 0.38]",225,2,"[5707, 7159, 8942]",,,test,3
16,423072,mouselab,6434.0,"[[-29, 205, -55, -185, 285, -322], [-156, 131, -41, 22, 311, -68], [149, -101, 35, -184, -118, 77], [43, 248, 123, 103, -78, -195]]",2,6,1,"[11, 9, 7]",205,"[0.1, 0.68, 0.13, 0.09]",199,0,"[2832, 4056, 5237]",,,test,4
16,438987,mouselab,9517.0,"[[-100, 136, 158, -95, -190, 82], [50, -158, 132, -161, -69, -44], [162, 150, 15, -54, -86, -174], [155, -178, 56, -204, -44, 15]]",2,6,2,"[1, 7, 8]",15,"[0.41, 0.39, 0.14, 0.06]",9,2,"[3975, 4647, 6633]",,,test,5
16,448245,mouselab,7212.0,"[[-44, 75, -250, -223, -266, -15], [80, 117, 283, 14, -3, -89], [-134, -77, 70, -173, -110, -9], [259, -236, 125, 279, -202, -394]]",2,6,2,"[9, 8, 7]",125,"[0.38, 0.37, 0.02, 0.23]",119,3,"[3500, 4794, 6331]",,,test,6
16,459411,mouselab,9313.0,"[[13, -176, -142, -128, -6, -312], [-7, 274, 13, -16, 180, -157], [-289, -124, -369, 16, 90, 318], [95, 187, -119, 275, -78, 129]]",2,6,2,"[0, 5, 3]",-119,"[0.37, 0.15, 0.3, 0.18]",-125,3,"[5591, 6797, 7722]",,,test,7
16,473808,mouselab,5612.0,"[[238, 61, -52, 125, 87, -7], [136, -124, -3, 55, -321, 3], [-222, -87, 50, 133, 28, -86], [-157, 6, -31, -132, 28, 16]]",2,6,0,"[3, 2, 0]",238,"[0.89, 0.03, 0.01, 0.07]",232,0,"[2779, 3641, 4631]",,,test,8
16,485955,mouselab,8119.0,"[[123, -104, 0, -39, 134, -16], [-73, -271, -49, 36, -244, 199], [-341, 64, -255, 178, -46, -133], [-129, -148, -44, 80, 79, -129]]",2,6,2,"[3, 5, 1]",0,"[0.48, 0.3, 0.2, 0.02]",-6,0,"[3759, 4824, 5984]",,,test,9
0,64206,mouselab,53698.0,"[[-1, 12, -37, -1, -14, -13], [-62, -138, -50, 13, 49, -27], [14, -111, 37, 44, -9, -13], [66, -33, -4, 168, 114, 14]]",2,0,0,[],66,"[0.2, 0.2, 0.1, 0.5]",66,3,[],,,instruct1,0
0,70111,mouselab,4389.0,"[[-1, 12, -37, -1, -14, -13], [-62, -138, -50, 13, 49, -27], [14, -111, 37, 44, -9, -13], [66, -33, -4, 168, 114, 14]]",2,0,1,[],-33,"[0.2, 0.2, 0.1, 0.5]",-33,3,[],,,instruct1,1
0,71895,mouselab,820.0,"[[-1, 12, -37, -1, -14, -13], [-62, -138, -50, 13, 49, -27], [14, -111, 37, 44, -9, -13], [66, -33, -4, 168, 114, 14]]",2,0,2,[],-4,"[0.2, 0.2, 0.1, 0.5]",-4,3,[],,,instruct1,2
0,159142,mouselab,26195.0,"[[1, 32, 19, -36, -29, -103], [5, 17, -103, -183, -53, -189], [-11, 86, -48, -54, -114, 50], [-8, 75, -15, -133, 45, -174]]",2,0,1,[],32,"[0.26, 0.28, 0.2, 0.26]",32,0,[],,,instruct2,0
0,171507,mouselab,9841.0,"[[14, -53, 93, -83, 103, -31], [-15, 159, -45, 65, 194, 97], [28, -12, 22, 52, 160, 152], [35, -5, -11, -4, 147, 124]]",2,0,4,[],147,"[0.25, 0.29, 0.23, 0.23]",147,3,[],,,instruct2,1
0,189364,mouselab,14688.0,"[[33, 73, -21, 54, -43, 101], [-30, 25, 19, -2, 84, 120], [24, -125, -58, -7, -20, 38], [101, 53, 171, -97, 93, 208]]",2,0,5,[],120,"[0.2, 0.26, 0.34, 0.2]",120,1,[],,,instruct2,2
0,215236,mouselab,23621.0,"[[81, -2, 5, -48, -53, 33], [28, -107, -55, 81, 28, 77], [50, -71, -39, -117, 1, 2], [-40, -33, -13, -38, 82, -17]]",2,12,0,"[13, 15, 17, 12, 14, 16]",81,"[0.29, 0.14, 0.37, 0.2]",69,0,"[14419, 15174, 15814, 21045, 21611, 21952]",,,instruct3,0
0,225669,mouselab,8559.0,"[[-27, -93, 2, -85, 95, 19], [-208, -13, 68, -28, -28, -68], [34, 13, -36, -7, -75, 5], [32, 53, 24, 10, -116, -51]]",2,12,1,"[18, 19, 20, 22, 23, 21]",-93,"[0.28, 0.27, 0.1, 0.35]",-105,0,"[4781, 5146, 5546, 6512, 6810, 7235]",,,instruct3,1
0,237905,mouselab,9367.0,"[[-23, -52, 13, 120, 50, 111], [-59, 6, 73, 31, 48, -118], [-45, 37, -55, -32, -111, 36], [-73, 72, -73, -19, 63, 57]]",2,14,1,"[0, 18, 19, 20, 22, 21, 23]",37,"[0.3, 0.19, 0.18, 0.33]",23,2,"[2037, 3690, 4470, 5701, 6315, 7248, 7770]",,,instruct3,2
0,262308,mouselab,12932.0,"[[-24, -73, -19, -57, 43, -58], [49, -16, -51, 78, -111, 37], [-41, -63, -11, -99, -99, 120], [-185, -108, -102, 38, -72, 82]]",2,12,4,"[0, 2, 4, 1, 5, 3]",-111,"[0.27, 0.26, 0.23, 0.24]",-123,1,"[4356, 5235, 5981, 10774, 11809, 12244]",,,test,0
0,278910,mouselab,14266.0,"[[-12, 137, -73, 1, 92, 32], [2, -34, 82, 16, 17, -57], [-5, -80, -32, 99, -28, -22], [155, -40, -35, -60, 17, 110]]",2,18,5,"[0, 1, 2, 19, 3, 4, 5, 22, 23]",32,"[0.31, 0.12, 0.26, 0.31]",14,0,"[4061, 5904, 6186, 7241, 8698, 9124, 9603, 10194, 12936]",,,test,1
0,288422,mouselab,7149.0,"[[46, 119, -36, -13, 14, -51], [-145, 68, -21, -42, 45, 146], [-26, -26, -57, -42, -13, -78], [8, -6, -91, 52, 71, 6]]",2,12,5,"[6, 7, 8, 9, 10, 11]",146,"[0.19, 0.41, 0.18, 0.22]",134,1,"[2123, 3353, 3989, 5221, 5734, 5988]",,,test,2
0,297803,mouselab,7953.0,"[[-11, -102, 88, 102, 38, 17], [-110, 39, 56, -7, -162, 144], [5, -29, -6, 30, -57, -11], [203, -95, -11, 98, -58, -3]]",2,14,3,"[0, 1, 2, 3, 4, 5, 15]",102,"[0.37, 0.25, 0.26, 0.12]",88,0,"[2755, 3343, 3645, 3935, 4327, 4678, 7127]",,,test,3
0,306509,mouselab,7472.0,"[[105, -31, -104, -11, 58, 158], [20, 75, 26, 148, 129, 37], [9, -82, 168, -129, -14, 4], [-61, 22, 114, -89, -31, 72]]",2,14,2,"[12, 13, 14, 15, 16, 17, 8]",168,"[0.17, 0.29, 0.3, 0.24]",154,2,"[2700, 3323, 3575, 3877, 4214, 4557, 5705]",,,test,4
0,316943,mouselab,8967.0,"[[49, -84, -18, 7, -89, 49], [70, -49, -132, -68, 105, -29], [34, 3, 86, 31, 49, -65], [28, 21, -11, -82, -70, 94]]",2,16,0,"[0, 1, 2, 3, 4, 5, 12, 17]",28,"[0.37, 0.21, 0.24, 0.18]",12,3,"[2187, 2816, 3084, 3587, 3924, 4203, 6563, 8278]",,,test,5
0,328126,mouselab,10204.0,"[[5, 78, -8, -15, 202, -203], [-160, -18, 34, -28, 88, -179], [-3, -81, -45, 82, -41, 52], [-96, 103, -17, 8, -75, -77]]",2,14,4,"[0, 1, 2, 3, 4, 5, 22]",202,"[0.32, 0.21, 0.22, 0.25]",188,0,"[2125, 2754, 3010, 5360, 5884, 6099, 9144]",,,test,6
0,334947,mouselab,5277.0,"[[-95, 157, 99, -83, -42, -46], [-176, -86, -15, -78, -157, 95], [18, 27, -43, 19, -3, -40], [33, -3, -26, -65, 60, 33]]",2,12,5,"[6, 7, 8, 9, 10, 11]",95,"[0.17, 0.41, 0.18, 0.24]",83,1,"[1410, 1694, 2008, 2288, 2566, 2838]",,,test,7
0,346067,mouselab,9707.0,"[[-108, -43, -62, 7, 51, 21], [122, 43, -44, -94, -36, 1], [67, 147, -91, -23, 20, 66], [-71, 4, -91, 1, -54, 100]]",2,14,1,"[12, 13, 14, 15, 16, 17, 7]",43,"[0.18000000000000002, 0.25, 0.38, 0.19]",29,1,"[2795, 3024, 3358, 5720, 6346, 6791, 8332]",,,test,8
0,354546,mouselab,7140.0,"[[18, 24, -170, 52, -1, -42], [39, -23, -17, 62, -169, -63], [-84, 19, 99, 73, 166, 55], [46, 202, -185, 19, -26, 62]]",2,14,4,"[12, 13, 14, 15, 16, 17, 22]",-169,"[0.21, 0.2, 0.32, 0.27]",-183,1,"[1283, 1482, 1730, 2019, 2346, 3093, 6186]",,,test,9
18,86251,mouselab,51117.0,"[[-76, -41, 21, -110, 285, -84], [93, -70, 184, -68, -66, 40], [121, -92, -193, -298, -136, 258], [-93, -74, -206, -71, 12, 140]]",2,0,0,[],121,"[0.2, 0.2, 0.1, 0.5]",121,2,[],,,instruct1,0
18,95057,mouselab,5752.0,"[[-76, -41, 21, -110, 285, -84], [93, -70, 184, -68, -66, 40], [121, -92, -193, -298, -136, 258], [-93, -74, -206, -71, 12, 140]]",2,0,1,[],-70,"[0.2, 0.2, 0.1, 0.5]",-70,1,[],,,instruct1,1
18,101165,mouselab,4190.0,"[[-76, -41, 21, -110, 285, -84], [93, -70, 184, -68, -66, 40], [121, -92, -193, -298, -136, 258], [-93, -74, -206, -71, 12, 140]]",2,0,2,[],-206,"[0.2, 0.2, 0.1, 0.5]",-206,3,[],,,instruct1,2
18,213156,mouselab,14954.0,"[[-82, -146, -67, -42, -123, 16], [-190, -89, -158, 149, 95, 195], [-45, -6, 157, 77, 189, 230], [-64, -300, -4, 99, -132, 135]]",2,0,5,[],195,"[0.45, 0.31, 0.02, 0.22]",195,1,[],,,instruct2,0
18,230336,mouselab,15435.0,"[[165, 200, 78, -182, 62, 51], [-261, 142, -82, 33, -210, 85], [151, 169, 10, -132, 96, 126], [-24, 229, 60, -206, -127, 189]]",2,0,1,[],169,"[0.01, 0.04, 0.57, 0.38]",169,2,[],,,instruct2,1
18,242438,mouselab,10632.0,"[[41, 13, 40, 109, 48, -93], [-11, -12, -147, 330, -63, 313], [-113, 236, -109, 297, 36, -9], [118, -111, -13, 281, -35, 264]]",2,0,3,[],330,"[0.26, 0.38, 0.24, 0.12]",330,1,[],,,instruct2,2
18,289192,mouselab,36209.0,"[[356, 76, 32, 133, -176, 28], [43, -82, -214, 4, 100, -91], [265, -57, -188, -140, -116, -101], [-67, -142, -220, -259, 106, 220]]",2,6,0,"[0, 2, 12]",356,"[0.76, 0.1, 0.04, 0.1]",350,0,"[23188, 28315, 32202]",,,instruct3,0
18,307360,mouselab,12858.0,"[[38, 36, 139, 86, -241, 42], [-325, -135, 193, 263, -59, -58], [226, 148, 69, -117, -192, -157], [-12, -30, -67, -97, 103, -69]]",2,6,2,"[18, 21, 23]",-67,"[0.2, 0.09, 0.24, 0.47]",-73,3,"[6493, 7893, 9099]",,,instruct3,1
18,324549,mouselab,14807.0,"[[68, 4, 25, -17, 12, -143], [11, -84, 210, 13, 129, 36], [151, -9, -32, -66, -110, -214], [-28, 71, 217, 85, -1, 10]]",2,6,5,"[19, 23, 7]",10,"[0.06, 0.01, 0.22, 0.71]",4,3,"[3116, 5799, 9741]",,,instruct3,2
18,353735,mouselab,15686.0,"[[44, 18, 52, -69, -10, -27], [-240, -175, -7, -69, 30, 6], [61, 11, -139, 200, 41, -208], [-135, -38, 1, -87, -101, 119]]",2,6,0,"[19, 22, 20]",-135,"[0.04000000000000001, 0.1, 0.27, 0.59]",-141,3,"[3687, 5031, 13467]",,,test,0
18,370773,mouselab,14588.0,"[[85, -46, 152, -46, -113, -63], [108, -54, 170, -35, 169, 76], [-53, 94, 267, 58, -142, -326], [202, -251, 11, 17, -77, -15]]",2,6,0,"[3, 0, 12]",108,"[0.62, 0.22, 0.15, 0.01]",102,1,"[6401, 7676, 10296]",,,test,1
18,388801,mouselab,14942.0,"[[71, 72, 16, 139, 23, 41], [-121, -89, 88, -65, 52, -45], [-112, -188, -182, -60, 190, -184], [-74, 195, 63, 171, -202, 76]]",2,8,3,"[18, 23, 11, 21]",171,"[0.01, 0.24, 0.04, 0.71]",163,3,"[5264, 6655, 11116, 12894]",,,test,2
18,402575,mouselab,11502.0,"[[122, -130, -104, 118, -103, -89], [-132, 79, 133, -76, 20, 270], [75, -159, 6, 173, 13, 65], [73, 55, -156, 90, 307, -128]]",2,6,3,"[1, 15, 3]",118,"[0.23, 0.33, 0.4, 0.04]",112,0,"[3847, 6570, 9769]",,,test,3
18,415037,mouselab,10754.0,"[[-149, -416, -107, 23, -25, 272], [-188, -22, -159, 68, 1, -385], [-71, -58, -93, 23, -163, -61], [124, -3, 226, -389, -65, -145]]",2,6,3,"[12, 15, 3]",23,"[0.32, 0.04, 0.57, 0.07]",17,2,"[6385, 7381, 9006]",,,test,4
18,434481,mouselab,17742.0,"[[-75, 1, 69, 86, 66, -131], [-68, -38, -111, -12, 122, 127], [-34, -135, -29, 137, 282, 83], [36, 176, -126, 252, 42, -45]]",2,8,2,"[1, 3, 5, 9]",69,"[0.74, 0.17, 0.01, 0.08]",61,0,"[5968, 7878, 10128, 13568]",,,test,5
18,467768,mouselab,31626.0,"[[-29, 205, -55, -185, 285, -322], [-156, 131, -41, 22, 311, -68], [149, -101, 35, -184, -118, 77], [43, 248, 123, 103, -78, -195]]",2,12,1,"[7, 13, 9, 6, 11, 8]",205,"[0.1, 0.68, 0.13, 0.09]",193,0,"[7206, 9531, 15321, 18724, 25023, 28889]",,,test,6
18,476920,mouselab,6640.0,"[[-15, 102, -79, -66, -255, -221], [-97, -267, -3, 73, 177, 176], [23, 131, 159, -54, -41, -224], [-100, -270, -101, 71, -93, -1]]",2,4,1,"[1, 13]",-270,"[0.45999999999999996, 0.07, 0.39, 0.08]",-274,3,"[3617, 5371]",,,test,7
18,506999,mouselab,28470.0,"[[-225, 120, -81, -13, -66, 264], [33, 106, 65, 340, -99, 165], [206, 179, -74, 185, -16, 151], [10, -114, 172, 51, -209, -293]]",2,16,3,"[6, 8, 7, 19, 14, 10, 22, 9]",340,"[0.010000000000000009, 0.72, 0.13, 0.14]",324,1,"[3199, 4419, 7651, 9677, 14370, 16331, 17005, 27380]",,,test,8
18,525591,mouselab,17108.0,"[[56, 21, 87, 114, 344, 196], [-82, -269, 110, -21, 41, -168], [-115, -65, 150, 133, 149, -206], [353, 78, -24, -228, -209, 32]]",2,12,2,"[6, 8, 20, 22, 23, 9]",-24,"[0.03, 0.5, 0.06, 0.41]",-36,3,"[3253, 4807, 6130, 9524, 11310, 15808]",,,test,9
