pid,time_elapsed,trial_type,probabilities,click_cost,payoff_value,payoff_matrix,choice_index,payoff_index,cost,clicks,net_payoff,block,trial_index
4,39253,mouselab,"[0.2, 0.2, 0.1, 0.5]",0,-60,"[[71, -2, 55, 34, -53, -159], [76, 49, 7, 82, 89, -18], [-206, -62, -41, 5, 125, 152], [-60, -14, -42, 131, -29, -22]]",0,3,1,[],-60,instruct1,0
4,44575,mouselab,"[0.2, 0.2, 0.1, 0.5]",0,-2,"[[71, -2, 55, 34, -53, -159], [76, 49, 7, 82, 89, -18], [-206, -62, -41, 5, 125, 152], [-60, -14, -42, 131, -29, -22]]",1,0,1,[],-2,instruct1,1
4,47357,mouselab,"[0.2, 0.2, 0.1, 0.5]",0,-42,"[[71, -2, 55, 34, -53, -159], [76, 49, 7, 82, 89, -18], [-206, -62, -41, 5, 125, 152], [-60, -14, -42, 131, -29, -22]]",2,3,1,[],-42,instruct1,2
4,63249,mouselab,"[0.18, 0.01, 0.49, 0.32]",0,108,"[[91, 112, 106, -10, 17, -181], [18, 108, 50, -35, 91, 91], [244, 251, 54, -14, 19, -96], [-13, 97, -117, -10, -148, 48]]",1,1,1,[],108,instruct2,0
4,66991,mouselab,"[0.44, 0.02, 0.52, 0.02]",0,154,"[[-187, -107, 35, 44, -125, 17], [101, 32, 108, 191, 186, 159], [-58, 140, 12, 154, -136, -7], [-35, 123, 89, 135, -59, 13]]",3,2,1,[],154,instruct2,1
4,74285,mouselab,"[0.15, 0.63, 0.05, 0.17]",0,169,"[[115, 139, 59, 29, 80, 66], [-58, 65, 57, -22, -28, 45], [93, 144, 36, 84, 129, 25], [155, 169, -15, -56, -36, 83]]",1,3,1,[],169,instruct2,2
4,79101,mouselab,"[0.07999999999999999, 0.11, 0.4, 0.41]",0,150,"[[-35, 82, 55, 97, -190, 7], [29, 65, -67, 120, 110, 20], [-141, -10, 116, 131, 36, -101], [95, 34, -48, 150, 137, 75]]",3,3,1,[],150,instruct2,3
4,87203,mouselab,"[0.16, 0.25, 0.29, 0.3]",0,132,"[[212, 219, 20, 169, -81, -65], [-106, 149, -6, 67, 70, 143], [170, 177, -248, -31, -48, 51], [-191, 132, -24, 44, 16, 123]]",1,3,1,[],132,instruct2,4
4,103091,mouselab,"[0.5299999999999999, 0.31, 0.11, 0.05]",6,-12,"[[-37, -120, 12, -37, -164, -8], [111, 82, -67, -104, 117, -41], [113, 8, -12, 71, -138, -115], [-146, -7, -29, -34, -125, -52]]",2,2,1,"[0, 1, 2, 3, 4, 5]",-18,instruct3,0
4,108983,mouselab,"[0.05, 0.13, 0.75, 0.07]",6,163,"[[16, 5, 19, -3, -15, -86], [138, 52, 66, 26, -136, 61], [-72, -92, -185, 6, 163, -31], [111, -46, -53, 47, 62, -125]]",4,2,1,"[12, 13, 14, 15, 16, 17]",157,instruct3,1
4,114736,mouselab,"[0.3, 0, 0.69, 0.01]",6,167,"[[71, 28, -137, 18, -179, 206], [104, -136, -74, 78, -4, 93], [63, 124, 167, 153, 147, 89], [57, 82, 2, -127, 77, -69]]",2,2,1,"[12, 13, 14, 15, 16, 17]",161,instruct3,2
4,125455,mouselab,"[0.37, 0.28, 0.32, 0.03]",6,-102,"[[26, -1, 90, -36, 117, 25], [-74, 119, -87, -151, -93, 110], [8, 103, -1, 83, -102, 80], [77, -3, 172, 108, 19, 182]]",4,2,1,"[0, 1, 2, 3, 4, 5]",-108,test,0
4,131079,mouselab,"[0.44, 0.2, 0.14, 0.22]",6,46,"[[131, 42, -116, -75, -193, 137], [104, 257, 96, -73, -65, 46], [46, -112, 44, -175, -130, 17], [-110, -33, 69, -89, -188, -107]]",5,1,1,"[0, 1, 2, 3, 4, 5]",40,test,1
4,136820,mouselab,"[0.16, 0.07, 0.06, 0.71]",6,91,"[[-8, -50, -16, 49, -52, -52], [64, -7, -10, -283, 61, 43], [-129, -111, -276, -108, 183, 16], [72, -10, -23, 91, 79, 32]]",3,3,1,"[18, 19, 20, 21, 22, 23]",85,test,2
4,141993,mouselab,"[0.14, 0.38, 0.31, 0.17]",6,-61,"[[61, 28, 84, 95, -9, 31], [-2, -12, 148, -26, -107, -13], [-3, -69, -61, 71, 165, 26], [-29, -81, 111, 126, -110, 93]]",2,2,1,"[6, 7, 8, 9, 10, 11]",-67,test,3
4,147035,mouselab,"[0.87, 0, 0.03, 0.1]",6,90,"[[25, 90, -95, -80, -111, 19], [-137, -119, 131, 63, -70, 43], [-218, -2, 137, 158, 38, -108], [151, -50, -104, 14, 16, -57]]",1,0,1,"[0, 1, 2, 3, 4, 5]",84,test,4
4,154157,mouselab,"[0.52, 0.13, 0.23, 0.12]",6,137,"[[-56, 136, 120, 137, 6, -179], [30, 104, 31, -62, -163, 41], [24, 68, 94, -18, -117, 127], [-18, -241, 41, 46, -165, 39]]",3,0,1,"[0, 1, 2, 3, 4, 5]",131,test,5
4,160868,mouselab,"[0.3100000000000001, 0.35, 0.18, 0.16]",6,95,"[[-75, -75, 143, 87, 181, 87], [-44, -23, 86, -21, 95, 23], [-35, 76, 223, 111, -17, 52], [250, 34, 46, -62, 109, 92]]",4,1,1,"[6, 7, 8, 10, 9, 11]",89,test,6
4,166169,mouselab,"[0.3199999999999998, 0.52, 0.03, 0.13]",6,175,"[[-82, -29, 133, 57, 171, -57], [-69, -31, 175, 57, -4, -17], [-46, 47, -84, 120, 142, 3], [-9, 90, -79, 35, -155, 17]]",2,1,1,"[6, 8, 7, 9, 10, 11]",169,test,7
4,172909,mouselab,"[0.06000000000000001, 0.45, 0.39, 0.1]",6,174,"[[10, 104, -78, -133, -2, -20], [-143, 12, 174, -87, -72, -118], [87, 76, -38, 99, -26, 182], [-82, -60, 16, 37, 77, -63]]",2,1,1,"[6, 8, 7, 9, 10, 11]",168,test,8
4,177955,mouselab,"[0.05, 0.38, 0.33, 0.24]",6,-38,"[[68, 21, 1, 167, -56, -28], [-16, 80, -190, -105, -115, 112], [61, -48, -138, -250, 167, -38], [-68, 56, 110, -56, 16, -147]]",5,2,1,"[6, 7, 8, 9, 10, 11]",-44,test,9
8,114545,mouselab,"[0.2, 0.2, 0.1, 0.5]",0,151,"[[151, -21, 35, -56, 14, 116], [85, 106, 44, 15, -95, 178], [51, -12, 3, -86, 41, 81], [-98, 56, 84, 40, -41, 104]]",0,0,1,[],151,instruct1,0
8,144306,mouselab,"[0.2, 0.2, 0.1, 0.5]",0,-21,"[[151, -21, 35, -56, 14, 116], [85, 106, 44, 15, -95, 178], [51, -12, 3, -86, 41, 81], [-98, 56, 84, 40, -41, 104]]",1,0,1,[],-21,instruct1,1
8,178322,mouselab,"[0.2, 0.2, 0.1, 0.5]",0,35,"[[151, -21, 35, -56, 14, 116], [85, 106, 44, 15, -95, 178], [51, -12, 3, -86, 41, 81], [-98, 56, 84, 40, -41, 104]]",2,0,1,[],35,instruct1,2
8,207105,mouselab,"[0.04, 0.85, 0.1, 0.01]",0,98,"[[177, -258, -201, 88, -89, 13], [98, -35, 6, 93, 29, -20], [152, 145, -111, -40, 57, -11], [74, 65, -27, -53, -121, 4]]",0,1,1,[],98,instruct2,0
8,224066,mouselab,"[0.44, 0.33, 0.1, 0.13]",0,65,"[[-64, 65, -46, 0, -72, 60], [74, 137, 122, 5, -41, -8], [-42, 237, -110, -114, 230, 51], [-152, 159, -6, -23, 144, -44]]",1,0,1,[],65,instruct2,1
8,236773,mouselab,"[0.31, 0.22, 0.21, 0.26]",0,154,"[[-31, -1, 154, 149, 67, -109], [123, -201, 137, 9, 65, 46], [-35, 99, 114, 93, -150, -48], [226, -93, 233, -177, -26, 47]]",2,0,1,[],154,instruct2,2
8,250426,mouselab,"[0.07999999999999999, 0.11, 0.4, 0.41]",0,120,"[[-35, 82, 55, 97, -190, 7], [29, 65, -67, 120, 110, 20], [-141, -10, 116, 131, 36, -101], [95, 34, -48, 150, 137, 75]]",3,1,1,[],120,instruct2,3
8,261127,mouselab,"[0.15, 0.63, 0.05, 0.17]",0,169,"[[115, 139, 59, 29, 80, 66], [-58, 65, 57, -22, -28, 45], [93, 144, 36, 84, 129, 25], [155, 169, -15, -56, -36, 83]]",1,3,1,[],169,instruct2,4
8,309309,mouselab,"[0.22999999999999998, 0.08, 0.41, 0.28]",0,66,"[[62, 62, 52, 253, -65, -166], [57, -30, -5, 82, 54, 113], [93, 24, 9, -49, -40, 26], [-116, -2, 66, 29, 49, -50]]",2,3,1,[],66,instruct3,0
8,350305,mouselab,"[0.5800000000000001, 0.09, 0.19, 0.14]",4,-64,"[[126, 40, 31, -20, 93, -33], [203, -64, -35, 15, 72, 122], [145, 9, 168, 159, 42, -69], [-2, 4, 139, -65, -101, -29]]",1,1,1,"[3, 13, 1, 12]",-68,instruct3,1
8,371975,mouselab,"[0.31, 0.14, 0.01, 0.54]",6,158,"[[104, 158, 247, -192, -107, 167], [47, 23, -45, 311, 155, -187], [42, 120, 133, 78, -68, 162], [116, -32, 95, 86, 23, -104]]",1,0,1,"[6, 13, 8, 9, 16, 11]",152,instruct3,2
8,408277,mouselab,"[0.05, 0.13, 0.75, 0.07]",6,-72,"[[16, 5, 19, -3, -15, -86], [138, 52, 66, 26, -136, 61], [-72, -92, -185, 6, 163, -31], [111, -46, -53, 47, 62, -125]]",0,2,1,"[6, 7, 8, 15, 16, 17]",-78,test,0
8,430873,mouselab,"[0.09999999999999999, 0.48, 0.22, 0.2]",7,92,"[[-127, -136, 38, -56, -48, -18], [17, 37, -122, 69, -55, 39], [123, -31, 64, 92, 1, -81], [-150, 147, -82, 64, 29, 141]]",3,2,1,"[0, 1, 2, 14, 15, 8, 9]",85,test,1
8,450535,mouselab,"[0.2100000000000001, 0.25, 0.45, 0.09]",6,131,"[[39, 25, 3, 208, 154, -30], [-35, 48, 9, 35, -6, -47], [176, 41, -52, -64, 131, -45], [-20, -23, 90, 277, 66, 53]]",4,2,1,"[0, 1, 8, 9, 4, 5]",125,test,2
8,478247,mouselab,"[0.15000000000000002, 0.13, 0.51, 0.21]",7,-110,"[[-120, 111, -24, 96, 68, -28], [-77, 141, 28, -111, 48, 11], [73, -181, -85, -100, 24, -43], [73, 33, 242, -46, -110, 23]]",4,3,1,"[0, 7, 13, 8, 14, 9, 10]",-117,test,3
8,496908,mouselab,"[0.15, 0.22, 0.3, 0.33]",7,32,"[[-85, 45, -18, 34, 1, 142], [-78, 32, 51, -59, -132, 43], [134, 38, 111, -17, -75, -66], [78, 136, 33, 20, -60, 58]]",1,1,1,"[0, 6, 7, 13, 2, 9, 1]",25,test,4
8,512466,mouselab,"[0.35, 0.03, 0.06, 0.56]",5,-60,"[[-5, 50, 64, 135, -42, 10], [65, -49, 42, -50, -9, 89], [-52, -14, -83, -159, 12, 45], [147, 44, -248, 214, -60, 109]]",4,3,1,"[0, 7, 2, 14, 9]",-65,test,5
8,527605,mouselab,"[0.21000000000000002, 0.53, 0.24, 0.02]",3,24,"[[172, -81, 6, -14, -36, 22], [-9, -48, -101, 18, -10, 136], [24, 221, 68, 202, -23, 52], [77, 22, -169, -15, 158, 32]]",0,2,1,"[0, 12, 6]",21,test,6
8,548198,mouselab,"[0.44, 0.06, 0.24, 0.26]",6,64,"[[39, 91, -108, 64, -83, 119], [-11, -42, -176, 117, -8, 100], [109, -9, -46, -82, -30, -105], [-26, 63, 191, 83, 67, -56]]",3,0,1,"[0, 6, 7, 8, 9, 3]",58,test,7
8,563476,mouselab,"[0.41, 0.22, 0.33, 0.04]",4,67,"[[76, -128, 32, 25, -58, 49], [67, -76, 24, 76, -40, 81], [25, -136, -2, 99, -139, 4], [-33, -88, -24, 7, -111, 70]]",0,1,1,"[0, 6, 18, 12]",63,test,8
8,581608,mouselab,"[0.27, 0.1, 0.09, 0.54]",7,14,"[[49, -9, 14, -208, 63, 168], [61, -74, 36, -81, 13, 14], [-39, 150, 100, -231, 29, -23], [-74, 14, -185, -20, 114, 102]]",2,0,1,"[0, 6, 12, 18, 7, 8, 2]",7,test,9
3,115417,mouselab,"[0.2, 0.2, 0.1, 0.5]",0,-98,"[[151, -21, 35, -56, 14, 116], [85, 106, 44, 15, -95, 178], [51, -12, 3, -86, 41, 81], [-98, 56, 84, 40, -41, 104]]",0,3,1,[],-98,instruct1,0
3,120399,mouselab,"[0.2, 0.2, 0.1, 0.5]",0,56,"[[151, -21, 35, -56, 14, 116], [85, 106, 44, 15, -95, 178], [51, -12, 3, -86, 41, 81], [-98, 56, 84, 40, -41, 104]]",1,3,1,[],56,instruct1,1
3,124586,mouselab,"[0.2, 0.2, 0.1, 0.5]",0,44,"[[151, -21, 35, -56, 14, 116], [85, 106, 44, 15, -95, 178], [51, -12, 3, -86, 41, 81], [-98, 56, 84, 40, -41, 104]]",2,1,1,[],44,instruct1,2
3,140939,mouselab,"[0.05, 0.1, 0.29, 0.56]",0,183,"[[114, -121, 50, 17, 124, -72], [36, 19, 104, -15, 232, 225], [-139, 34, -134, 169, 183, -134], [-233, 59, -13, -155, 89, 81]]",4,2,1,[],183,instruct2,0
3,145601,mouselab,"[0.19, 0.11, 0.23, 0.47]",0,89,"[[29, -41, 134, 152, 59, 146], [88, 0, -51, 98, -51, 11], [100, 3, 148, 204, -11, 190], [-123, -128, -99, 89, 81, -18]]",3,3,1,[],89,instruct2,1
3,154358,mouselab,"[0.07999999999999999, 0.11, 0.4, 0.41]",0,131,"[[-35, 82, 55, 97, -190, 7], [29, 65, -67, 120, 110, 20], [-141, -10, 116, 131, 36, -101], [95, 34, -48, 150, 137, 75]]",3,2,1,[],131,instruct2,2
3,157199,mouselab,"[0.47000000000000003, 0.01, 0.34, 0.18]",0,138,"[[129, 229, -93, -112, -41, 222], [-100, 146, 78, -145, 139, -93], [-60, 58, 49, 45, -19, 29], [111, 138, 131, -45, 36, -15]]",1,3,1,[],138,instruct2,3
3,161519,mouselab,"[0.12, 0.01, 0.14, 0.73]",0,115,"[[24, 211, 26, 28, 53, 77], [-150, 115, 103, -27, -52, -142], [-1, 88, 34, -56, 75, 51], [101, 115, -35, -128, -171, -87]]",1,3,1,[],115,instruct2,4
3,179380,mouselab,"[0.15, 0.42, 0.19, 0.24]",2,81,"[[118, -87, 33, 3, 165, -72], [105, 81, -41, 52, -1, 83], [-67, -162, 238, -15, -44, 90], [7, 35, -80, 18, -110, 34]]",1,1,1,"[7, 19]",79,instruct3,0
3,195274,mouselab,"[0.14, 0.15, 0.62, 0.09]",4,131,"[[-81, -34, 97, 156, -78, -82], [7, -42, -123, -55, -153, -25], [54, 156, -12, -157, -146, 131], [-45, -117, -31, -11, 44, -6]]",5,2,1,"[7, 8, 9, 10]",127,instruct3,1
3,208822,mouselab,"[0.82, 0.08, 0.07, 0.03]",6,-34,"[[-53, -34, 27, 134, 136, -112], [-79, 135, -130, -211, -95, 108], [-110, -48, -101, 3, 91, 63], [-122, -101, 14, 19, -39, 70]]",1,0,1,"[6, 7, 8, 9, 10, 11]",-40,instruct3,2
3,237200,mouselab,"[0.3199999999999998, 0.52, 0.03, 0.13]",6,57,"[[-82, -29, 133, 57, 171, -57], [-69, -31, 175, 57, -4, -17], [-46, 47, -84, 120, 142, 3], [-9, 90, -79, 35, -155, 17]]",3,0,1,"[6, 7, 8, 9, 14, 10]",51,test,0
3,243113,mouselab,"[0.06000000000000001, 0.45, 0.39, 0.1]",3,174,"[[10, 104, -78, -133, -2, -20], [-143, 12, 174, -87, -72, -118], [87, 76, -38, 99, -26, 182], [-82, -60, 16, 37, 77, -63]]",2,1,1,"[6, 7, 8]",171,test,1
3,249678,mouselab,"[0.31, 0.14, 0.01, 0.54]",3,-32,"[[104, 158, 247, -192, -107, 167], [47, 23, -45, 311, 155, -187], [42, 120, 133, 78, -68, 162], [116, -32, 95, 86, 23, -104]]",1,3,1,"[8, 16, 13]",-35,test,2
3,252933,mouselab,"[0.59, 0.11, 0.15, 0.15]",0,48,"[[31, 48, -53, 29, -167, 69], [119, -194, 8, -127, 149, 98], [-87, 105, 243, -6, -64, -7], [26, 94, 12, -21, 57, 20]]",1,0,1,[],48,test,3
3,259938,mouselab,"[-8.673617379884035e-18, 0.23, 0.23, 0.54]",4,-79,"[[-36, 8, 5, -103, 63, 4], [-38, -120, -6, 48, 92, 13], [-93, 94, -33, 24, 73, -36], [114, -55, -67, 40, -79, 83]]",4,3,1,"[7, 9, 8, 10]",-83,test,4
3,265350,mouselab,"[0.38, 0.28, 0.33, 0.01]",2,30,"[[79, -54, -108, 105, 113, -227], [90, 147, 106, -8, -251, -14], [115, 102, 30, 133, -53, -165], [-56, 137, -73, -44, -51, 6]]",2,2,1,"[9, 8]",28,test,5
3,269117,mouselab,"[0.87, 0, 0.03, 0.1]",0,90,"[[25, 90, -95, -80, -111, 19], [-137, -119, 131, 63, -70, 43], [-218, -2, 137, 158, 38, -108], [151, -50, -104, 14, 16, -57]]",1,0,1,[],90,test,6
3,272494,mouselab,"[0.14, 0.38, 0.31, 0.17]",1,148,"[[61, 28, 84, 95, -9, 31], [-2, -12, 148, -26, -107, -13], [-3, -69, -61, 71, 165, 26], [-29, -81, 111, 126, -110, 93]]",2,1,1,[8],147,test,7
3,281967,mouselab,"[0.44, 0.06, 0.01, 0.49]",6,3,"[[-146, 149, 128, -15, -45, 68], [47, -50, -83, -194, -75, 75], [7, 246, 31, 53, -63, 159], [-91, -5, -185, 216, 15, 3]]",5,3,1,"[9, 8, 7, 6, 10, 11]",-3,test,8
3,288423,mouselab,"[0.31, 0.42, 0.06, 0.21]",4,-37,"[[56, 101, -240, -37, 123, -77], [29, -72, 38, 99, 188, 107], [-4, 44, -31, 36, -4, 63], [118, 88, -12, 108, 170, 230]]",3,0,1,"[6, 7, 8, 9]",-41,test,9
9,13935,mouselab,"[0.2, 0.2, 0.1, 0.5]",0,-143,"[[10, 104, -78, -133, -2, -20], [-143, 12, 174, -87, -72, -118], [87, 76, -38, 99, -26, 182], [-82, -60, 16, 37, 77, -63]]",0,1,1,[],-143,instruct1,0
9,17455,mouselab,"[0.2, 0.2, 0.1, 0.5]",0,104,"[[10, 104, -78, -133, -2, -20], [-143, 12, 174, -87, -72, -118], [87, 76, -38, 99, -26, 182], [-82, -60, 16, 37, 77, -63]]",1,0,1,[],104,instruct1,1
9,20330,mouselab,"[0.2, 0.2, 0.1, 0.5]",0,-38,"[[10, 104, -78, -133, -2, -20], [-143, 12, 174, -87, -72, -118], [87, 76, -38, 99, -26, 182], [-82, -60, 16, 37, 77, -63]]",2,2,1,[],-38,instruct1,2
9,43507,mouselab,"[0.47000000000000003, 0.01, 0.34, 0.18]",0,229,"[[129, 229, -93, -112, -41, 222], [-100, 146, 78, -145, 139, -93], [-60, 58, 49, 45, -19, 29], [111, 138, 131, -45, 36, -15]]",1,0,1,[],229,instruct2,0
9,48359,mouselab,"[0.19, 0.11, 0.23, 0.47]",0,98,"[[29, -41, 134, 152, 59, 146], [88, 0, -51, 98, -51, 11], [100, 3, 148, 204, -11, 190], [-123, -128, -99, 89, 81, -18]]",3,1,1,[],98,instruct2,1
9,51428,mouselab,"[0.18, 0.01, 0.49, 0.32]",0,251,"[[91, 112, 106, -10, 17, -181], [18, 108, 50, -35, 91, 91], [244, 251, 54, -14, 19, -96], [-13, 97, -117, -10, -148, 48]]",1,2,1,[],251,instruct2,2
9,54138,mouselab,"[0.44, 0.33, 0.1, 0.13]",0,65,"[[-64, 65, -46, 0, -72, 60], [74, 137, 122, 5, -41, -8], [-42, 237, -110, -114, 230, 51], [-152, 159, -6, -23, 144, -44]]",1,0,1,[],65,instruct2,3
9,57890,mouselab,"[0.47, 0.33, 0.09, 0.11]",0,183,"[[144, 69, 154, -174, 51, 66], [-43, 30, 183, 28, -66, 168], [13, 166, 181, -129, 32, 24], [-96, 167, 176, 134, 82, 27]]",2,1,1,[],183,instruct2,4
9,77753,mouselab,"[0.41, 0.18, 0.28, 0.13]",2,76,"[[71, -2, 55, 34, -53, -159], [76, 49, 7, 82, 89, -18], [-206, -62, -41, 5, 125, 152], [-60, -14, -42, 131, -29, -22]]",0,1,1,"[0, 13]",74,instruct3,0
9,90188,mouselab,"[0.14, 0.38, 0.31, 0.17]",4,71,"[[61, 28, 84, 95, -9, 31], [-2, -12, 148, -26, -107, -13], [-3, -69, -61, 71, 165, 26], [-29, -81, 111, 126, -110, 93]]",3,2,1,"[1, 7, 12, 18]",67,instruct3,1
9,103957,mouselab,"[0.38, 0.38, 0.11, 0.13]",7,72,"[[151, 53, -158, -31, 56, 101], [193, 169, 170, -29, -50, -144], [-72, 72, -3, 35, -73, -133], [-54, 57, -42, -46, 8, 2]]",1,2,1,"[0, 7, 13, 19, 2, 9, 16]",65,instruct3,2
9,133509,mouselab,"[0.82, 0.08, 0.07, 0.03]",17,-112,"[[-53, -34, 27, 134, 136, -112], [-79, 135, -130, -211, -95, 108], [-110, -48, -101, 3, 91, 63], [-122, -101, 14, 19, -39, 70]]",5,0,1,"[0, 7, 13, 19, 9, 16, 15, 21, 5, 11, 17, 23, 6, 12, 2, 8, 14]",-129,test,0
9,147588,mouselab,"[0.26, 0.25, 0.13, 0.36]",14,-86,"[[-86, -152, -56, 73, 30, 60], [178, -222, -181, -37, -3, 87], [-114, -31, 107, -1, 4, -40], [62, 29, -36, -17, -56, 71]]",0,0,1,"[3, 9, 14, 20, 7, 12, 6, 4, 16, 22, 5, 11, 17, 23]",-100,test,1
9,152606,mouselab,"[0.67, 0.13, 0.16, 0.04]",2,94,"[[94, -75, 67, 56, 75, 27], [112, -67, -68, -59, -162, -102], [-11, -45, -51, 15, 65, -78], [24, -54, -32, -59, 381, 36]]",0,0,1,"[0, 6]",92,test,2
9,165980,mouselab,"[0.21, 0.74, 0.02, 0.03]",11,-32,"[[-87, -73, -26, -114, -111, 85], [-17, -56, 33, -32, 4, 6], [-32, 9, -93, -44, -37, -307], [-25, -155, -151, -33, 98, -15]]",3,1,1,"[2, 8, 15, 19, 13, 4, 10, 23, 17, 0, 6]",-43,test,3
9,179144,mouselab,"[0.13, 0.36, 0.28, 0.23]",12,83,"[[59, -103, 137, 26, -60, -71], [20, 61, -138, 48, 12, 113], [-110, -144, -22, 170, 67, -6], [-62, 4, -76, 173, 83, -98]]",4,3,1,"[1, 7, 12, 18, 3, 9, 14, 20, 5, 11, 16, 22]",71,test,4
9,185213,mouselab,"[0.21000000000000002, 0.53, 0.24, 0.02]",4,22,"[[172, -81, 6, -14, -36, 22], [-9, -48, -101, 18, -10, 136], [24, 221, 68, 202, -23, 52], [77, 22, -169, -15, 158, 32]]",5,0,1,"[5, 11, 17, 23]",18,test,5
9,198937,mouselab,"[0.11000000000000011, 0.3, 0.49, 0.1]",13,-84,"[[-7, -99, 70, 67, 23, -9], [-166, 270, 72, 95, -96, -5], [-13, -40, -84, -38, -24, -200], [-54, 26, -111, -123, 53, 14]]",2,2,1,"[0, 6, 13, 19, 3, 9, 15, 22, 16, 5, 11, 2, 8]",-97,test,6
9,207510,mouselab,"[0.87, 0, 0.03, 0.1]",12,19,"[[25, 90, -95, -80, -111, 19], [-137, -119, 131, 63, -70, 43], [-218, -2, 137, 158, 38, -108], [151, -50, -104, 14, 16, -57]]",5,0,1,"[0, 6, 19, 13, 2, 8, 3, 9, 4, 10, 5, 11]",7,test,7
9,213435,mouselab,"[0.38, 0.28, 0.33, 0.01]",7,79,"[[79, -54, -108, 105, 113, -227], [90, 147, 106, -8, -251, -14], [115, 102, 30, 133, -53, -165], [-56, 137, -73, -44, -51, 6]]",0,0,1,"[2, 8, 1, 7, 0, 6, 12]",72,test,8
9,236751,mouselab,"[0.13, 0.48, 0.37, 0.02]",13,14,"[[111, 53, -34, -24, 40, 58], [75, -60, -84, 64, 138, 39], [14, -17, -162, -28, 293, 0], [42, -27, 111, 54, 26, 54]]",0,2,1,"[0, 6, 1, 7, 2, 8, 3, 9, 4, 10, 5, 11, 12]",1,test,9
1,146175,mouselab,"[0.2, 0.2, 0.1, 0.5]",0,126,"[[126, 40, 31, -20, 93, -33], [203, -64, -35, 15, 72, 122], [145, 9, 168, 159, 42, -69], [-2, 4, 139, -65, -101, -29]]",0,0,1,[],126,instruct1,0
1,176463,mouselab,"[0.2, 0.2, 0.1, 0.5]",0,40,"[[126, 40, 31, -20, 93, -33], [203, -64, -35, 15, 72, 122], [145, 9, 168, 159, 42, -69], [-2, 4, 139, -65, -101, -29]]",1,0,1,[],40,instruct1,1
1,201471,mouselab,"[0.2, 0.2, 0.1, 0.5]",0,139,"[[126, 40, 31, -20, 93, -33], [203, -64, -35, 15, 72, 122], [145, 9, 168, 159, 42, -69], [-2, 4, 139, -65, -101, -29]]",2,3,1,[],139,instruct1,2
1,226331,mouselab,"[0.47, 0.33, 0.09, 0.11]",0,176,"[[144, 69, 154, -174, 51, 66], [-43, 30, 183, 28, -66, 168], [13, 166, 181, -129, 32, 24], [-96, 167, 176, 134, 82, 27]]",2,3,1,[],176,instruct2,0
1,239516,mouselab,"[0.06, 0.08, 0.06, 0.8]",0,114,"[[-119, -29, -166, 115, 108, -8], [-246, -32, 88, 102, 51, -80], [145, 184, 159, 195, -78, 121], [-41, -186, 109, 114, 28, 6]]",3,3,1,[],114,instruct2,1
1,254618,mouselab,"[0.81, 0.12, 0.01, 0.06]",0,95,"[[6, -27, 95, -60, 89, -187], [-1, 38, 141, -20, 10, -36], [13, -60, 219, 10, 205, 106], [-27, 132, 140, 41, -22, -42]]",2,0,1,[],95,instruct2,2
1,262628,mouselab,"[0.12, 0.01, 0.14, 0.73]",0,115,"[[24, 211, 26, 28, 53, 77], [-150, 115, 103, -27, -52, -142], [-1, 88, 34, -56, 75, 51], [101, 115, -35, -128, -171, -87]]",1,3,1,[],115,instruct2,3
1,270940,mouselab,"[0.07999999999999999, 0.11, 0.4, 0.41]",0,131,"[[-35, 82, 55, 97, -190, 7], [29, 65, -67, 120, 110, 20], [-141, -10, 116, 131, 36, -101], [95, 34, -48, 150, 137, 75]]",3,2,1,[],131,instruct2,4
1,326297,mouselab,"[0.08000000000000002, 0.22, 0.5, 0.2]",2,147,"[[59, -76, 17, 173, 129, -3], [38, -117, 62, -109, -63, 53], [-29, 4, 21, -109, 88, -137], [-49, 86, -27, 84, 147, -182]]",4,3,1,"[18, 22]",145,instruct3,0
1,347587,mouselab,"[0.11, 0.01, 0.46, 0.42]",4,142,"[[-19, -10, 8, 76, -129, 15], [-54, 129, -102, 31, 98, -51], [-35, 35, -52, 142, -34, 92], [169, -218, 196, 38, 9, 42]]",3,2,1,"[0, 15, 3, 9]",138,instruct3,1
1,383593,mouselab,"[0.27, 0.06, 0.3, 0.37]",6,-97,"[[90, 100, 75, 31, 163, -110], [-110, -61, 8, 120, 66, -10], [49, 50, 96, -9, -97, 37], [119, 293, 48, -37, -18, -174]]",4,2,1,"[6, 7, 8, 9, 10, 15]",-103,instruct3,2
1,416182,mouselab,"[0.44, 0.06, 0.01, 0.49]",12,68,"[[-146, 149, 128, -15, -45, 68], [47, -50, -83, -194, -75, 75], [7, 246, 31, 53, -63, 159], [-91, -5, -185, 216, 15, 3]]",5,0,1,"[0, 1, 2, 3, 4, 5, 7, 8, 9, 10, 11, 6]",56,test,0
1,440686,mouselab,"[0.2399999999999999, 0.18, 0.43, 0.15]",8,-114,"[[14, 58, 118, 42, 26, 42], [-147, 41, -244, -175, -57, 1], [-163, -122, -137, 6, 285, -114], [-44, 89, 37, 96, 113, 105]]",5,2,1,"[6, 7, 1, 13, 8, 9, 10, 11]",-122,test,1
1,449725,mouselab,"[0.06000000000000001, 0.45, 0.39, 0.1]",6,-118,"[[10, 104, -78, -133, -2, -20], [-143, 12, 174, -87, -72, -118], [87, 76, -38, 99, -26, 182], [-82, -60, 16, 37, 77, -63]]",5,1,1,"[0, 7, 14, 15, 16, 17]",-124,test,2
1,460272,mouselab,"[0.45, 0.3, 0.21, 0.04]",7,165,"[[49, -11, 78, -93, 118, -210], [90, 143, -128, -100, 46, 46], [71, -33, -118, -66, 165, -156], [-70, -29, 114, 49, 131, 179]]",4,2,1,"[7, 9, 16, 17, 11, 4, 10]",158,test,3
1,474400,mouselab,"[0.37, 0.28, 0.32, 0.03]",7,80,"[[26, -1, 90, -36, 117, 25], [-74, 119, -87, -151, -93, 110], [8, 103, -1, 83, -102, 80], [77, -3, 172, 108, 19, 182]]",5,2,1,"[6, 7, 8, 9, 10, 11, 17]",73,test,4
1,489033,mouselab,"[0.15, 0.22, 0.3, 0.33]",6,136,"[[-85, 45, -18, 34, 1, 142], [-78, 32, 51, -59, -132, 43], [134, 38, 111, -17, -75, -66], [78, 136, 33, 20, -60, 58]]",1,3,1,"[6, 7, 8, 9, 10, 11]",130,test,5
1,498795,mouselab,"[0.3, 0, 0.69, 0.01]",7,71,"[[71, 28, -137, 18, -179, 206], [104, -136, -74, 78, -4, 93], [63, 124, 167, 153, 147, 89], [57, 82, 2, -127, 77, -69]]",0,0,1,"[6, 7, 8, 9, 10, 11, 12]",64,test,6
1,511521,mouselab,"[0.56, 0.23, 0.08, 0.13]",8,-13,"[[131, 114, -8, 92, 160, -13], [-38, 209, -30, 53, -22, 47], [121, -83, -161, -228, -65, 252], [-55, -56, -198, -212, -44, -118]]",5,0,1,"[6, 7, 8, 9, 10, 11, 19, 17]",-21,test,7
1,524597,mouselab,"[0.82, 0.08, 0.07, 0.03]",9,136,"[[-53, -34, 27, 134, 136, -112], [-79, 135, -130, -211, -95, 108], [-110, -48, -101, 3, 91, 63], [-122, -101, 14, 19, -39, 70]]",4,0,1,"[6, 3, 8, 9, 1, 5, 11, 16, 4]",127,test,8
1,550183,mouselab,"[0.24000000000000002, 0.49, 0.15, 0.12]",17,60,"[[-97, 18, -7, -57, 80, -27], [46, -42, -131, 119, -91, 60], [-22, -63, 18, -36, -53, 34], [28, 2, 111, -89, -46, -17]]",5,1,1,"[0, 1, 2, 3, 4, 5, 16, 13, 7, 10, 6, 12, 15, 11, 17, 14, 8]",43,test,9
2,54935,mouselab,"[0.2, 0.2, 0.1, 0.5]",0,105,"[[118, -87, 33, 3, 165, -72], [105, 81, -41, 52, -1, 83], [-67, -162, 238, -15, -44, 90], [7, 35, -80, 18, -110, 34]]",0,1,1,[],105,instruct1,0
2,69379,mouselab,"[0.2, 0.2, 0.1, 0.5]",0,81,"[[118, -87, 33, 3, 165, -72], [105, 81, -41, 52, -1, 83], [-67, -162, 238, -15, -44, 90], [7, 35, -80, 18, -110, 34]]",1,1,1,[],81,instruct1,1
2,71794,mouselab,"[0.2, 0.2, 0.1, 0.5]",0,-80,"[[118, -87, 33, 3, 165, -72], [105, 81, -41, 52, -1, 83], [-67, -162, 238, -15, -44, 90], [7, 35, -80, 18, -110, 34]]",2,3,1,[],-80,instruct1,2
2,101018,mouselab,"[0.37, 0.08, 0.48, 0.07]",0,67,"[[74, -18, 65, -317, 13, -221], [140, -84, 10, -48, 62, 125], [118, -41, -69, -69, 108, -29], [67, -97, -272, 9, -12, 47]]",0,3,1,[],67,instruct2,0
2,109299,mouselab,"[0.14, 0.23, 0, 0.63]",0,176,"[[61, 67, 38, 42, 0, -67], [171, 176, -75, -86, -110, 6], [-6, 60, 55, -35, 21, -104], [182, 197, 52, 58, -198, 122]]",1,1,1,[],176,instruct2,1
2,115241,mouselab,"[0.41, 0.34, 0.08, 0.17]",0,136,"[[-131, 136, 15, 130, -15, 26], [-69, 144, -77, -40, 73, -147], [58, 103, 95, 43, -34, 61], [98, 258, 2, -3, -93, 174]]",1,0,1,[],136,instruct2,2
2,120510,mouselab,"[0.19, 0.11, 0.23, 0.47]",0,204,"[[29, -41, 134, 152, 59, 146], [88, 0, -51, 98, -51, 11], [100, 3, 148, 204, -11, 190], [-123, -128, -99, 89, 81, -18]]",3,2,1,[],204,instruct2,3
2,127000,mouselab,"[0.33, 0.33, 0.26, 0.08]",0,280,"[[-121, 57, 280, 271, 86, 98], [-227, -40, -1, -102, -12, -88], [32, 56, 193, -146, 64, 178], [-273, 83, 156, 67, 151, -55]]",2,0,1,[],280,instruct2,4
2,171844,mouselab,"[0.15, 0.22, 0.3, 0.33]",14,136,"[[-85, 45, -18, 34, 1, 142], [-78, 32, 51, -59, -132, 43], [134, 38, 111, -17, -75, -66], [78, 136, 33, 20, -60, 58]]",1,3,1,"[0, 1, 2, 3, 4, 5, 11, 17, 23, 7, 13, 19, 9, 15]",122,instruct3,0
2,182335,mouselab,"[0.08000000000000002, 0.36, 0.46, 0.1]",4,61,"[[-4, -2, 174, -29, -12, 170], [51, 156, 22, 58, -124, 23], [16, -40, 61, -39, 28, 39], [-20, 12, 36, 19, -129, -45]]",2,2,1,"[1, 8, 15, 22]",57,instruct3,1
2,195233,mouselab,"[0.65, 0.09, 0.23, 0.03]",6,202,"[[53, 101, -49, 98, 76, 202], [49, -104, 145, -6, -25, 201], [-41, -195, 61, -107, -52, 103], [8, -46, 123, -132, 107, -92]]",5,0,1,"[0, 7, 12, 14, 10, 17]",196,instruct3,2
2,256712,mouselab,"[0.22, 0.02, 0.27, 0.49]",13,62,"[[59, 9, 132, -95, 117, -32], [7, 89, -45, -47, -66, -162], [-40, -123, 81, 18, -83, -36], [0, -4, 62, -102, 18, -76]]",2,3,1,"[18, 19, 20, 21, 22, 23, 12, 13, 14, 17, 0, 2, 16]",49,test,0
2,293648,mouselab,"[0.02, 0.81, 0.12, 0.05]",8,137,"[[15, 237, -19, 3, -3, 15], [-9, -1, 137, -65, 181, -33], [-40, 7, 68, -29, -140, 140], [7, -77, 22, 125, -209, -10]]",2,1,1,"[6, 7, 8, 9, 10, 11, 16, 14]",129,test,1
2,310948,mouselab,"[0.12, 0.45, 0.12, 0.31]",9,178,"[[151, -21, 35, -56, 14, 116], [85, 106, 44, 15, -95, 178], [51, -12, 3, -86, 41, 81], [-98, 56, 84, 40, -41, 104]]",5,1,1,"[6, 7, 8, 9, 10, 11, 18, 19, 23]",169,test,2
2,348785,mouselab,"[0.4300000000000001, 0.25, 0.21, 0.11]",18,92,"[[-24, -8, -8, 35, -50, 85], [-36, 89, 60, 92, 90, -90], [29, 128, -73, -13, 51, 23], [-57, -76, 47, -90, 18, -68]]",3,1,1,"[0, 1, 2, 3, 4, 5, 6, 7, 8, 9, 10, 11, 13, 15, 19, 21, 17, 23]",74,test,3
2,373252,mouselab,"[0.31, 0.14, 0.01, 0.54]",11,95,"[[104, 158, 247, -192, -107, 167], [47, 23, -45, 311, 155, -187], [42, 120, 133, 78, -68, 162], [116, -32, 95, 86, 23, -104]]",2,3,1,"[18, 19, 20, 21, 22, 23, 0, 2, 3, 8, 6]",84,test,4
2,387354,mouselab,"[0.27, 0.06, 0.3, 0.37]",10,293,"[[90, 100, 75, 31, 163, -110], [-110, -61, 8, 120, 66, -10], [49, 50, 96, -9, -97, 37], [119, 293, 48, -37, -18, -174]]",1,3,1,"[18, 19, 20, 21, 22, 23, 13, 12, 0, 1]",283,test,5
2,408099,mouselab,"[0.13, 0.36, 0.28, 0.23]",12,170,"[[59, -103, 137, 26, -60, -71], [20, 61, -138, 48, 12, 113], [-110, -144, -22, 170, 67, -6], [-62, 4, -76, 173, 83, -98]]",3,2,1,"[6, 7, 8, 9, 10, 11, 12, 13, 15, 16, 17, 21]",158,test,6
2,422467,mouselab,"[0.01, 0.4, 0.11, 0.48]",8,229,"[[64, -28, 63, -11, 158, -55], [4, -79, 252, -6, 172, 7], [-61, -50, -75, -30, 171, 108], [0, 88, 229, 108, 116, -4]]",2,3,1,"[18, 19, 20, 21, 22, 23, 7, 8]",221,test,7
2,454548,mouselab,"[0.47, 0.3, 0.07, 0.16]",13,85,"[[-201, -42, -45, 55, 85, -57], [-117, -216, 85, 9, 0, -19], [179, 79, -36, -142, -94, 170], [79, 9, -97, -91, -61, -70]]",4,0,1,"[0, 1, 2, 3, 4, 5, 10, 9, 7, 8, 22, 21, 20]",72,test,8
2,474933,mouselab,"[0.2399999999999999, 0.18, 0.43, 0.15]",8,285,"[[14, 58, 118, 42, 26, 42], [-147, 41, -244, -175, -57, 1], [-163, -122, -137, 6, 285, -114], [-44, 89, 37, 96, 113, 105]]",4,2,1,"[12, 13, 14, 15, 16, 17, 4, 3]",277,test,9
5,27916,mouselab,"[0.2, 0.2, 0.1, 0.5]",0,-15,"[[75, -210, -117, -27, 161, 39], [49, -53, 53, 221, -57, -26], [121, 107, 66, -122, -70, -23], [-15, -56, -165, 301, 305, 149]]",0,3,1,[],-15,instruct1,0
5,31035,mouselab,"[0.2, 0.2, 0.1, 0.5]",0,-56,"[[75, -210, -117, -27, 161, 39], [49, -53, 53, 221, -57, -26], [121, 107, 66, -122, -70, -23], [-15, -56, -165, 301, 305, 149]]",1,3,1,[],-56,instruct1,1
5,33755,mouselab,"[0.2, 0.2, 0.1, 0.5]",0,-165,"[[75, -210, -117, -27, 161, 39], [49, -53, 53, 221, -57, -26], [121, 107, 66, -122, -70, -23], [-15, -56, -165, 301, 305, 149]]",2,3,1,[],-165,instruct1,2
5,40612,mouselab,"[0.47, 0.33, 0.09, 0.11]",0,28,"[[144, 69, 154, -174, 51, 66], [-43, 30, 183, 28, -66, 168], [13, 166, 181, -129, 32, 24], [-96, 167, 176, 134, 82, 27]]",3,1,1,[],28,instruct2,0
5,43452,mouselab,"[0.14, 0.23, 0, 0.63]",0,52,"[[61, 67, 38, 42, 0, -67], [171, 176, -75, -86, -110, 6], [-6, 60, 55, -35, 21, -104], [182, 197, 52, 58, -198, 122]]",2,3,1,[],52,instruct2,1
5,45772,mouselab,"[0.15, 0.27, 0.36, 0.22]",0,-94,"[[151, 173, 188, -79, 177, 34], [-33, -144, 80, -26, 44, 36], [21, -259, 85, -94, 39, 71], [41, 15, 106, -126, 20, 100]]",3,2,1,[],-94,instruct2,2
5,49205,mouselab,"[0.06, 0.08, 0.06, 0.8]",0,195,"[[-119, -29, -166, 115, 108, -8], [-246, -32, 88, 102, 51, -80], [145, 184, 159, 195, -78, 121], [-41, -186, 109, 114, 28, 6]]",3,2,1,[],195,instruct2,3
5,52749,mouselab,"[0.26, 0.08, 0.64, 0.02]",0,51,"[[-33, -76, 123, 128, 50, 9], [48, 85, 32, 250, 2, 243], [24, 45, 27, 51, -31, 8], [146, -115, 36, 159, 28, -134]]",3,2,1,[],51,instruct2,4
5,57285,mouselab,"[0.54, 0.13, 0.04, 0.29]",0,191,"[[-87, -74, -172, -55, -97, -132], [-45, 29, 63, 24, 71, -194], [-62, 13, 51, -106, -76, 13], [-143, -6, -53, 99, 191, -44]]",4,3,1,[],191,instruct3,0
5,60405,mouselab,"[0.2100000000000001, 0.37, 0.06, 0.36]",0,142,"[[129, -183, 216, 39, -62, -166], [70, 31, 221, 81, 142, 98], [-9, 93, 112, -44, 48, 35], [89, 140, 84, -93, 75, -205]]",4,1,1,[],142,instruct3,1
5,67821,mouselab,"[0.04, 0.04, 0.79, 0.13]",0,-31,"[[-121, 30, 62, -103, -90, -30], [-33, 126, 121, -39, 64, 48], [165, 56, -29, -31, -11, 14], [-36, 69, -77, -79, -54, 129]]",3,2,1,[],-31,instruct3,2
5,75270,mouselab,"[0.03, 0.2, 0.22, 0.55]",0,211,"[[-189, 163, 101, 48, 24, 115], [-50, 22, 62, -32, 49, -28], [-77, 25, -123, -67, 68, 41], [-52, -31, -64, 211, -40, 26]]",3,3,1,[],211,test,0
5,79006,mouselab,"[0.3100000000000001, 0.35, 0.18, 0.16]",0,109,"[[-75, -75, 143, 87, 181, 87], [-44, -23, 86, -21, 95, 23], [-35, 76, 223, 111, -17, 52], [250, 34, 46, -62, 109, 92]]",4,3,1,[],109,test,1
5,85382,mouselab,"[0.12, 0.45, 0.12, 0.31]",0,-41,"[[151, -21, 35, -56, 14, 116], [85, 106, 44, 15, -95, 178], [51, -12, 3, -86, 41, 81], [-98, 56, 84, 40, -41, 104]]",4,3,1,[],-41,test,2
5,91863,mouselab,"[0.28, 0, 0.38, 0.34]",0,26,"[[-41, -49, -147, -49, 43, 175], [-150, -60, -107, 76, -34, 11], [27, -8, 26, -128, -18, 82], [220, 160, -148, 69, 40, 113]]",2,2,1,[],26,test,3
5,96014,mouselab,"[0.05, 0.28, 0.65, 0.02]",0,-82,"[[2, -64, -30, -117, 116, -124], [-82, -105, 26, -114, 1, 199], [-127, 99, -58, 47, 258, 3], [93, -87, -176, -137, -117, 18]]",0,1,1,[],-82,test,4
5,99774,mouselab,"[0.35, 0.03, 0.06, 0.56]",0,-60,"[[-5, 50, 64, 135, -42, 10], [65, -49, 42, -50, -9, 89], [-52, -14, -83, -159, 12, 45], [147, 44, -248, 214, -60, 109]]",4,3,1,[],-60,test,5
5,102150,mouselab,"[0.15000000000000002, 0.13, 0.51, 0.21]",0,-85,"[[-120, 111, -24, 96, 68, -28], [-77, 141, 28, -111, 48, 11], [73, -181, -85, -100, 24, -43], [73, 33, 242, -46, -110, 23]]",2,2,1,[],-85,test,6
5,104726,mouselab,"[0.21000000000000002, 0.53, 0.24, 0.02]",0,136,"[[172, -81, 6, -14, -36, 22], [-9, -48, -101, 18, -10, 136], [24, 221, 68, 202, -23, 52], [77, 22, -169, -15, 158, 32]]",5,1,1,[],136,test,7
5,107543,mouselab,"[0.11000000000000001, 0.1, 0.22, 0.57]",0,219,"[[-49, -190, 10, -261, -38, -3], [110, 95, -146, 58, -11, -28], [20, -45, 97, 80, 57, 109], [174, -30, 7, 49, -5, 219]]",5,3,1,[],219,test,8
5,110406,mouselab,"[0.45, 0.34, 0.02, 0.19]",0,-23,"[[89, 21, -39, -154, -115, 83], [92, 134, -235, -2, 155, -23], [-98, -108, -34, 61, 57, 73], [-31, -75, -193, 56, 19, -39]]",5,1,1,[],-23,test,9
7,48405,mouselab,"[0.2, 0.2, 0.1, 0.5]",0,-82,"[[-130, -19, -104, 167, 45, 75], [123, 38, -84, 63, 37, -11], [-16, 306, 68, 80, -107, 66], [-82, 60, 103, -63, -107, -36]]",0,3,1,[],-82,instruct1,0
7,52209,mouselab,"[0.2, 0.2, 0.1, 0.5]",0,60,"[[-130, -19, -104, 167, 45, 75], [123, 38, -84, 63, 37, -11], [-16, 306, 68, 80, -107, 66], [-82, 60, 103, -63, -107, -36]]",1,3,1,[],60,instruct1,1
7,56193,mouselab,"[0.2, 0.2, 0.1, 0.5]",0,-104,"[[-130, -19, -104, 167, 45, 75], [123, 38, -84, 63, 37, -11], [-16, 306, 68, 80, -107, 66], [-82, 60, 103, -63, -107, -36]]",2,0,1,[],-104,instruct1,2
7,74048,mouselab,"[0.19, 0.11, 0.23, 0.47]",0,204,"[[29, -41, 134, 152, 59, 146], [88, 0, -51, 98, -51, 11], [100, 3, 148, 204, -11, 190], [-123, -128, -99, 89, 81, -18]]",3,2,1,[],204,instruct2,0
7,81942,mouselab,"[0.33, 0.33, 0.26, 0.08]",0,-1,"[[-121, 57, 280, 271, 86, 98], [-227, -40, -1, -102, -12, -88], [32, 56, 193, -146, 64, 178], [-273, 83, 156, 67, 151, -55]]",2,1,1,[],-1,instruct2,1
7,86076,mouselab,"[0.37, 0.08, 0.48, 0.07]",0,118,"[[74, -18, 65, -317, 13, -221], [140, -84, 10, -48, 62, 125], [118, -41, -69, -69, 108, -29], [67, -97, -272, 9, -12, 47]]",0,2,1,[],118,instruct2,2
7,90669,mouselab,"[0.31, 0.22, 0.21, 0.26]",0,233,"[[-31, -1, 154, 149, 67, -109], [123, -201, 137, 9, 65, 46], [-35, 99, 114, 93, -150, -48], [226, -93, 233, -177, -26, 47]]",2,3,1,[],233,instruct2,3
7,95114,mouselab,"[0.06, 0.08, 0.06, 0.8]",0,114,"[[-119, -29, -166, 115, 108, -8], [-246, -32, 88, 102, 51, -80], [145, 184, 159, 195, -78, 121], [-41, -186, 109, 114, 28, 6]]",3,3,1,[],114,instruct2,4
7,119796,mouselab,"[0.17, 0.07, 0.26, 0.5]",6,132,"[[78, 169, -87, -46, 66, 37], [-94, -88, -16, -43, -13, 112], [-94, 14, -50, 35, -85, 81], [-81, -58, 132, -245, -86, 25]]",2,3,1,"[18, 19, 20, 21, 22, 23]",126,instruct3,0
7,127021,mouselab,"[0.21, 0.01, 0.54, 0.24]",6,104,"[[15, 53, -122, -22, 142, 169], [-29, 217, 2, -20, 149, 30], [-10, 104, 32, 63, 18, 10], [194, -51, -95, 168, 28, 139]]",1,2,1,"[12, 13, 14, 15, 16, 17]",98,instruct3,1
7,135868,mouselab,"[0.5, 0.28, 0.12, 0.1]",6,94,"[[-52, 23, -31, 91, -70, 152], [68, -77, 37, -238, -18, -45], [-17, 40, 5, 12, -82, -80], [29, -42, 57, 152, 96, 94]]",5,3,1,"[0, 1, 2, 3, 4, 5]",88,instruct3,2
7,157435,mouselab,"[0.44, 0.06, 0.01, 0.49]",6,216,"[[-146, 149, 128, -15, -45, 68], [47, -50, -83, -194, -75, 75], [7, 246, 31, 53, -63, 159], [-91, -5, -185, 216, 15, 3]]",3,3,1,"[0, 19, 2, 20, 21, 3]",210,test,0
7,166041,mouselab,"[0.03, 0.69, 0.04, 0.24]",6,53,"[[-109, -174, 45, -95, -27, -41], [53, -72, -225, -32, -128, -171], [-84, 83, 51, -41, 28, 256], [90, -118, 106, -14, -157, -137]]",0,1,1,"[6, 7, 8, 9, 10, 11]",47,test,1
7,176619,mouselab,"[0.3, 0, 0.69, 0.01]",7,153,"[[71, 28, -137, 18, -179, 206], [104, -136, -74, 78, -4, 93], [63, 124, 167, 153, 147, 89], [57, 82, 2, -127, 77, -69]]",3,2,1,"[12, 13, 14, 15, 16, 17, 3]",146,test,2
7,185387,mouselab,"[0.15000000000000002, 0.13, 0.51, 0.21]",7,73,"[[-120, 111, -24, 96, 68, -28], [-77, 141, 28, -111, 48, 11], [73, -181, -85, -100, 24, -43], [73, 33, 242, -46, -110, 23]]",0,2,1,"[12, 13, 14, 15, 16, 17, 18]",66,test,3
7,200969,mouselab,"[0.13, 0.36, 0.28, 0.23]",8,170,"[[59, -103, 137, 26, -60, -71], [20, 61, -138, 48, 12, 113], [-110, -144, -22, 170, 67, -6], [-62, 4, -76, 173, 83, -98]]",3,2,1,"[6, 12, 13, 14, 8, 15, 9, 21]",162,test,4
7,210378,mouselab,"[0.18, 0.55, 0.11, 0.16]",7,12,"[[12, 36, -238, 243, -54, 76], [71, -206, -42, -257, -51, 45], [38, -71, -78, -36, -41, -107], [69, -132, 34, 35, 83, 109]]",0,0,1,"[6, 7, 8, 9, 10, 11, 0]",5,test,5
7,220999,mouselab,"[0.21, 0.74, 0.02, 0.03]",9,6,"[[-87, -73, -26, -114, -111, 85], [-17, -56, 33, -32, 4, 6], [-32, 9, -93, -44, -37, -307], [-25, -155, -151, -33, 98, -15]]",5,1,1,"[6, 7, 8, 9, 10, 11, 2, 4, 5]",-3,test,6
7,231019,mouselab,"[0.55, 0, 0.13, 0.32]",8,179,"[[-13, -6, 5, 42, -41, -155], [119, 22, 76, -7, -159, 100], [31, -29, -146, 60, -27, -75], [-6, 149, -54, 179, -168, -111]]",3,3,1,"[0, 2, 1, 3, 4, 5, 21, 15]",171,test,7
7,256608,mouselab,"[0.05, 0.38, 0.33, 0.24]",12,-48,"[[68, 21, 1, 167, -56, -28], [-16, 80, -190, -105, -115, 112], [61, -48, -138, -250, 167, -38], [-68, 56, 110, -56, 16, -147]]",1,2,1,"[6, 7, 13, 8, 9, 10, 11, 17, 23, 12, 18, 0]",-60,test,8
7,268209,mouselab,"[0.14999999999999977, 0.28, 0.44, 0.13]",8,0,"[[-35, 85, -139, 9, 196, -82], [88, -177, 51, -85, 12, -81], [0, 69, -208, 24, -49, -134], [97, -200, -84, -68, -3, -35]]",0,2,1,"[12, 13, 14, 7, 15, 9, 6, 18]",-8,test,9
0,36948,mouselab,"[0.2, 0.2, 0.1, 0.5]",0,-36,"[[-36, 8, 5, -103, 63, 4], [-38, -120, -6, 48, 92, 13], [-93, 94, -33, 24, 73, -36], [114, -55, -67, 40, -79, 83]]",0,0,1,[],-36,instruct1,0
0,41076,mouselab,"[0.2, 0.2, 0.1, 0.5]",0,-55,"[[-36, 8, 5, -103, 63, 4], [-38, -120, -6, 48, 92, 13], [-93, 94, -33, 24, 73, -36], [114, -55, -67, 40, -79, 83]]",1,3,1,[],-55,instruct1,1
0,43420,mouselab,"[0.2, 0.2, 0.1, 0.5]",0,-67,"[[-36, 8, 5, -103, 63, 4], [-38, -120, -6, 48, 92, 13], [-93, 94, -33, 24, 73, -36], [114, -55, -67, 40, -79, 83]]",2,3,1,[],-67,instruct1,2
0,58051,mouselab,"[0.37, 0.08, 0.48, 0.07]",0,74,"[[74, -18, 65, -317, 13, -221], [140, -84, 10, -48, 62, 125], [118, -41, -69, -69, 108, -29], [67, -97, -272, 9, -12, 47]]",0,0,1,[],74,instruct2,0
0,73645,mouselab,"[0.44, 0.02, 0.52, 0.02]",0,154,"[[-187, -107, 35, 44, -125, 17], [101, 32, 108, 191, 186, 159], [-58, 140, 12, 154, -136, -7], [-35, 123, 89, 135, -59, 13]]",3,2,1,[],154,instruct2,1
0,84404,mouselab,"[0.19, 0.11, 0.23, 0.47]",0,152,"[[29, -41, 134, 152, 59, 146], [88, 0, -51, 98, -51, 11], [100, 3, 148, 204, -11, 190], [-123, -128, -99, 89, 81, -18]]",3,0,1,[],152,instruct2,2
0,92826,mouselab,"[0.81, 0.12, 0.01, 0.06]",0,95,"[[6, -27, 95, -60, 89, -187], [-1, 38, 141, -20, 10, -36], [13, -60, 219, 10, 205, 106], [-27, 132, 140, 41, -22, -42]]",2,0,1,[],95,instruct2,3
0,100744,mouselab,"[0.41, 0.34, 0.08, 0.17]",0,136,"[[-131, 136, 15, 130, -15, 26], [-69, 144, -77, -40, 73, -147], [58, 103, 95, 43, -34, 61], [98, 258, 2, -3, -93, 174]]",1,0,1,[],136,instruct2,4
0,125806,mouselab,"[0.24000000000000002, 0.49, 0.15, 0.12]",2,-89,"[[-97, 18, -7, -57, 80, -27], [46, -42, -131, 119, -91, 60], [-22, -63, 18, -36, -53, 34], [28, 2, 111, -89, -46, -17]]",3,3,1,"[7, 9]",-91,instruct3,0
0,138224,mouselab,"[0.35000000000000003, 0.01, 0.38, 0.26]",4,63,"[[-130, -19, -104, 167, 45, 75], [123, 38, -84, 63, 37, -11], [-16, 306, 68, 80, -107, 66], [-82, 60, 103, -63, -107, -36]]",3,1,1,"[7, 12, 3, 22]",59,instruct3,1
0,154349,mouselab,"[0.16, 0.07, 0.06, 0.71]",6,32,"[[-8, -50, -16, 49, -52, -52], [64, -7, -10, -283, 61, 43], [-129, -111, -276, -108, 183, 16], [72, -10, -23, 91, 79, 32]]",5,3,1,"[1, 8, 15, 22, 11, 4]",26,instruct3,2
0,184651,mouselab,"[0.05, 0.28, 0.65, 0.02]",3,199,"[[2, -64, -30, -117, 116, -124], [-82, -105, 26, -114, 1, 199], [-127, 99, -58, 47, 258, 3], [93, -87, -176, -137, -117, 18]]",5,1,1,"[9, 7, 11]",196,test,0
0,213750,mouselab,"[0.39, 0.01, 0.36, 0.24]",17,75,"[[-4, -87, -30, -4, 46, -239], [-27, 24, 76, -66, -136, -36], [-53, 75, -106, 9, 140, -39], [7, 25, 75, -113, 39, 153]]",1,2,1,"[0, 1, 2, 3, 6, 5, 10, 14, 13, 7, 19, 12, 18, 8, 20, 15, 9]",58,test,1
0,238123,mouselab,"[0.65, 0.09, 0.23, 0.03]",7,101,"[[53, 101, -49, 98, 76, 202], [49, -104, 145, -6, -25, 201], [-41, -195, 61, -107, -52, 103], [8, -46, 123, -132, 107, -92]]",1,0,1,"[2, 1, 13, 4, 16, 3, 15]",94,test,2
0,255418,mouselab,"[0.1, 0.25, 0.24, 0.41]",8,114,"[[22, 82, -138, 24, 126, 56], [114, -18, -59, -63, 8, 19], [-141, -31, -95, 65, 110, -63], [9, -70, -7, 12, 114, -68]]",4,3,1,"[19, 20, 21, 22, 23, 17, 16, 10]",106,test,3
0,290206,mouselab,"[0.09999999999999999, 0.48, 0.22, 0.2]",6,69,"[[-127, -136, 38, -56, -48, -18], [17, 37, -122, 69, -55, 39], [123, -31, 64, 92, 1, -81], [-150, 147, -82, 64, 29, 141]]",3,1,1,"[6, 7, 8, 9, 10, 11]",63,test,4
0,307252,mouselab,"[0.87, 0, 0.03, 0.1]",6,-50,"[[25, 90, -95, -80, -111, 19], [-137, -119, 131, 63, -70, 43], [-218, -2, 137, 158, 38, -108], [151, -50, -104, 14, 16, -57]]",1,3,1,"[0, 1, 2, 3, 4, 5]",-56,test,5
0,322023,mouselab,"[0.2100000000000001, 0.37, 0.06, 0.36]",6,84,"[[129, -183, 216, 39, -62, -166], [70, 31, 221, 81, 142, 98], [-9, 93, 112, -44, 48, 35], [89, 140, 84, -93, 75, -205]]",2,3,1,"[6, 18, 7, 19, 8, 20]",78,test,6
0,350837,mouselab,"[0.44, 0.06, 0.24, 0.26]",8,-56,"[[39, 91, -108, 64, -83, 119], [-11, -42, -176, 117, -8, 100], [109, -9, -46, -82, -30, -105], [-26, 63, 191, 83, 67, -56]]",5,3,1,"[0, 1, 2, 3, 4, 5, 17, 23]",-64,test,7
0,366850,mouselab,"[0.44, 0.2, 0.14, 0.22]",4,-112,"[[131, 42, -116, -75, -193, 137], [104, 257, 96, -73, -65, 46], [46, -112, 44, -175, -130, 17], [-110, -33, 69, -89, -188, -107]]",1,2,1,"[1, 7, 13, 19]",-116,test,8
0,388965,mouselab,"[0.47, 0.3, 0.07, 0.16]",12,9,"[[-201, -42, -45, 55, 85, -57], [-117, -216, 85, 9, 0, -19], [179, 79, -36, -142, -94, 170], [79, 9, -97, -91, -61, -70]]",3,1,1,"[1, 7, 2, 8, 9, 3, 4, 10, 11, 5, 0, 6]",-3,test,9
